pos,corr_resp,thisN,thisTrialN,thisRepN,key_resp.keys,key_resp.corr,key_resp.rt,key_resp.duration,trials.thisRepN,trials.thisTrialN,trials.thisN,trials.thisIndex,trials_2.thisRepN,trials_2.thisTrialN,trials_2.thisN,trials_2.thisIndex,thisRow.t,notes,trial.started,fixation.started,line1.started,line2.started,line3.started,line4.started,fixation.stopped,probe.started,key_resp.started,trial.stopped,trials.key_resp.keys,trials.key_resp.corr,trials.key_resp.rt,trials.key_resp.duration,trials_2.key_resp.keys,trials_2.key_resp.corr,trials_2.key_resp.rt,trials_2.key_resp.duration,participant,session,date,expName,psychopyVersion,frameRate,expStart,
-50,x,0,0,0,x,1,0.7390044999774545,None,0,0,0,0,,,,,0.024219400016590953,,0.012395399971865118,0.024219400016590953,1.0081604999722913,1.0081604999722913,1.0081604999722913,1.0081604999722913,1.0242154999868944,2.0077267000451684,2.0077267000451684,2.760668499977328,x,1,0.7390044999774545,None,,,,,458621,001,2024-10-17_19h19.47.043,sequencelearning,2024.2.1,59.98307275970216,2024-10-17 19h19.50.013424 +0530,
150,v,1,1,0,v,1,0.4137097999919206,None,0,1,1,1,,,,,2.7730190000729635,,2.760918500018306,2.7730190000729635,3.773736200062558,3.773736200062558,3.773736200062558,3.773736200062558,3.773736200062558,4.772796800010838,4.772796800010838,5.189763400005177,v,1,0.4137097999919206,None,,,,,458621,001,2024-10-17_19h19.47.043,sequencelearning,2024.2.1,59.98307275970216,2024-10-17 19h19.50.013424 +0530,
50,c,2,2,0,c,1,0.2688827000092715,None,0,2,2,2,,,,,5.206266700057313,,5.190045600058511,5.206266700057313,6.205548400059342,6.205548400059342,6.205548400059342,6.205548400059342,6.205548400059342,7.205546700046398,7.205546700046398,7.489277900080197,c,1,0.2688827000092715,None,,,,,458621,001,2024-10-17_19h19.47.043,sequencelearning,2024.2.1,59.98307275970216,2024-10-17 19h19.50.013424 +0530,
-150,z,3,3,0,z,1,0.4216188999125734,None,0,3,3,3,,,,,7.505691000027582,,7.489577800035477,7.505691000027582,8.48781640001107,8.48781640001107,8.48781640001107,8.48781640001107,8.52113410003949,9.504127399995923,9.504127399995923,9.938134900061414,z,1,0.4216188999125734,None,,,,,458621,001,2024-10-17_19h19.47.043,sequencelearning,2024.2.1,59.98307275970216,2024-10-17 19h19.50.013424 +0530,
-50,x,4,0,1,x,1,0.6985088000074029,None,1,0,4,0,,,,,9.953958600061014,,9.93838790000882,9.953958600061014,10.953399099991657,10.953399099991657,10.953399099991657,10.953399099991657,10.953399099991657,11.953236500034109,11.953236500034109,12.653644300065935,x,1,0.6985088000074029,None,,,,,458621,001,2024-10-17_19h19.47.043,sequencelearning,2024.2.1,59.98307275970216,2024-10-17 19h19.50.013424 +0530,
150,v,5,1,1,v,1,0.3291418000590056,None,1,1,5,1,,,,,12.669730099965818,,12.653924799989909,12.669730099965818,13.668888500076719,13.668888500076719,13.668888500076719,13.668888500076719,13.668888500076719,14.668573100003414,14.668573100003414,15.002722600009292,v,1,0.3291418000590056,None,,,,,458621,001,2024-10-17_19h19.47.043,sequencelearning,2024.2.1,59.98307275970216,2024-10-17 19h19.50.013424 +0530,
50,c,6,2,1,c,1,0.4338759999955073,None,1,2,6,2,,,,,15.018477600067854,,15.002994499984197,15.018477600067854,16.017995200003497,16.017995200003497,16.017995200003497,16.017995200003497,16.017995200003497,17.017924400046468,17.017924400046468,17.468555000028573,c,1,0.4338759999955073,None,,,,,458621,001,2024-10-17_19h19.47.043,sequencelearning,2024.2.1,59.98307275970216,2024-10-17 19h19.50.013424 +0530,
-150,z,7,3,1,z,1,0.20992749999277294,None,1,3,7,3,,,,,17.484091100050136,,17.468833400052972,17.484091100050136,18.484074100037105,18.484074100037105,18.484074100037105,18.484074100037105,18.484074100037105,19.482914700056426,19.482914700056426,19.700624900055118,z,1,0.20992749999277294,None,,,,,458621,001,2024-10-17_19h19.47.043,sequencelearning,2024.2.1,59.98307275970216,2024-10-17 19h19.50.013424 +0530,
-50,x,8,0,2,x,1,0.20572460000403225,None,2,0,8,0,,,,,19.716351700015366,,19.700868700048886,19.716351700015366,20.715978599968366,20.715978599968366,20.715978599968366,20.715978599968366,20.715978599968366,21.715433800010942,21.715433800010942,21.93287570006214,x,1,0.20572460000403225,None,,,,,458621,001,2024-10-17_19h19.47.043,sequencelearning,2024.2.1,59.98307275970216,2024-10-17 19h19.50.013424 +0530,
150,v,9,1,2,v,1,0.17656369996257126,None,2,1,9,1,,,,,21.94870239996817,,21.933118600049056,21.94870239996817,22.931628399994224,22.931628399994224,22.931628399994224,22.931628399994224,22.94842300005257,23.948181600077078,23.948181600077078,24.13202540006023,v,1,0.17656369996257126,None,,,,,458621,001,2024-10-17_19h19.47.043,sequencelearning,2024.2.1,59.98307275970216,2024-10-17 19h19.50.013424 +0530,
50,c,10,2,2,c,1,0.16553780005779117,None,2,2,10,2,,,,,24.14768300007563,,24.132282000035048,24.14768300007563,25.14740370004438,25.14740370004438,25.14740370004438,25.14740370004438,25.14740370004438,26.14692119997926,26.14692119997926,26.314453599974513,c,1,0.16553780005779117,None,,,,,458621,001,2024-10-17_19h19.47.043,sequencelearning,2024.2.1,59.98307275970216,2024-10-17 19h19.50.013424 +0530,
-150,z,11,3,2,z,1,0.2875925999833271,None,2,3,11,3,,,,,26.33006559999194,,26.31473810004536,26.33006559999194,27.329750400036573,27.329750400036573,27.329750400036573,27.329750400036573,27.329750400036573,28.329070099978708,28.329070099978708,28.630117999971844,z,1,0.2875925999833271,None,,,,,458621,001,2024-10-17_19h19.47.043,sequencelearning,2024.2.1,59.98307275970216,2024-10-17 19h19.50.013424 +0530,
-50,x,12,0,3,x,1,0.21998310007620603,None,3,0,12,0,,,,,28.646553899976425,,28.630362599971704,28.646553899976425,29.64537480007857,29.64537480007857,29.64537480007857,29.64537480007857,29.64537480007857,30.644891700008884,30.644891700008884,30.878754700068384,x,1,0.21998310007620603,None,,,,,458621,001,2024-10-17_19h19.47.043,sequencelearning,2024.2.1,59.98307275970216,2024-10-17 19h19.50.013424 +0530,
150,v,13,1,3,v,1,0.19796579994726926,None,3,1,13,1,,,,,30.89493670000229,,30.8790302000707,30.89493670000229,31.878457300015725,31.878457300015725,31.878457300015725,31.878457300015725,31.894481700030155,32.87755990005098,32.87755990005098,33.07816619996447,v,1,0.19796579994726926,None,,,,,458621,001,2024-10-17_19h19.47.043,sequencelearning,2024.2.1,59.98307275970216,2024-10-17 19h19.50.013424 +0530,
50,c,14,2,3,c,1,0.25497729994822294,None,3,2,14,2,,,,,33.09473520005122,,33.07844880002085,33.09473520005122,34.07677679997869,34.07677679997869,34.07677679997869,34.07677679997869,34.11002450005617,35.09349320002366,35.09349320002366,35.36032159999013,c,1,0.25497729994822294,None,,,,,458621,001,2024-10-17_19h19.47.043,sequencelearning,2024.2.1,59.98307275970216,2024-10-17 19h19.50.013424 +0530,
-150,z,15,3,3,z,1,0.2681367000332102,None,3,3,15,3,,,,,35.37623280007392,,35.36058530001901,35.37623280007392,36.37607250001747,36.37607250001747,36.37607250001747,36.37607250001747,36.37607250001747,37.37601450004149,37.37601450004149,37.65919749997556,z,1,0.2681367000332102,None,,,,,458621,001,2024-10-17_19h19.47.043,sequencelearning,2024.2.1,59.98307275970216,2024-10-17 19h19.50.013424 +0530,
-50,x,16,0,4,x,1,0.19537319999653846,None,4,0,16,0,,,,,37.67553460004274,,37.65943340002559,37.67553460004274,38.67470840003807,38.67470840003807,38.67470840003807,38.67470840003807,38.67470840003807,39.65834820002783,39.65834820002783,39.85856820002664,x,1,0.19537319999653846,None,,,,,458621,001,2024-10-17_19h19.47.043,sequencelearning,2024.2.1,59.98307275970216,2024-10-17 19h19.50.013424 +0530,
150,v,17,1,4,v,1,0.26506289991084486,None,4,1,17,1,,,,,39.87434059998486,,39.858828000025824,39.87434059998486,40.874077600077726,40.874077600077726,40.874077600077726,40.874077600077726,40.874077600077726,41.87361690006219,41.87361690006219,42.141147100017406,v,1,0.26506289991084486,None,,,,,458621,001,2024-10-17_19h19.47.043,sequencelearning,2024.2.1,59.98307275970216,2024-10-17 19h19.50.013424 +0530,
50,c,18,2,4,c,1,0.23019010003190488,None,4,2,18,2,,,,,42.15707449999172,,42.14139470004011,42.15707449999172,43.15606160007883,43.15606160007883,43.15606160007883,43.15606160007883,43.15606160007883,44.156026100041345,44.156026100041345,44.38946129998658,c,1,0.23019010003190488,None,,,,,458621,001,2024-10-17_19h19.47.043,sequencelearning,2024.2.1,59.98307275970216,2024-10-17 19h19.50.013424 +0530,
-150,z,19,3,4,z,1,0.23309750005137175,None,4,3,19,3,,,,,44.40571419999469,,44.38972910004668,44.40571419999469,45.38921729999129,45.38921729999129,45.38921729999129,45.38921729999129,45.40524140000343,46.40492000000086,46.40492000000086,46.63937079999596,z,1,0.23309750005137175,None,,,,,458621,001,2024-10-17_19h19.47.043,sequencelearning,2024.2.1,59.98307275970216,2024-10-17 19h19.50.013424 +0530,
-50,x,20,0,5,x,1,0.36232219997327775,None,5,0,20,0,,,,,46.65492550004274,,46.63964249996934,46.65492550004274,47.654694300028495,47.654694300028495,47.654694300028495,47.654694300028495,47.654694300028495,48.65396889997646,48.65396889997646,49.021018699975684,x,1,0.36232219997327775,None,,,,,458621,001,2024-10-17_19h19.47.043,sequencelearning,2024.2.1,59.98307275970216,2024-10-17 19h19.50.013424 +0530,
150,v,21,1,5,v,1,0.2635668999282643,None,5,1,21,1,,,,,49.037433200050145,,49.021292100078426,49.037433200050145,50.03632940002717,50.03632940002717,50.03632940002717,50.03632940002717,50.052668899996206,51.03593680006452,51.03593680006452,51.3025419000769,v,1,0.2635668999282643,None,,,,,458621,001,2024-10-17_19h19.47.043,sequencelearning,2024.2.1,59.98307275970216,2024-10-17 19h19.50.013424 +0530,
50,c,22,2,5,c,1,0.23626419994980097,None,5,2,22,2,,,,,51.318800600012764,,51.30290949996561,51.318800600012764,52.301600500009954,52.301600500009954,52.301600500009954,52.301600500009954,52.31900790007785,53.31790769996587,53.31790769996587,53.56851510005072,c,1,0.23626419994980097,None,,,,,458621,001,2024-10-17_19h19.47.043,sequencelearning,2024.2.1,59.98307275970216,2024-10-17 19h19.50.013424 +0530,
-150,z,23,3,5,z,1,0.2276542999316007,None,5,3,23,3,,,,,53.58445480000228,,53.56876689998899,53.58445480000228,54.58404079999309,54.58404079999309,54.58404079999309,54.58404079999309,54.58404079999309,55.58361770003103,55.58361770003103,55.81764899997506,z,1,0.2276542999316007,None,,,,,458621,001,2024-10-17_19h19.47.043,sequencelearning,2024.2.1,59.98307275970216,2024-10-17 19h19.50.013424 +0530,
-50,x,24,0,6,x,1,0.17201370000839233,None,6,0,24,0,,,,,55.83341249998193,,55.817916800035164,55.83341249998193,56.832787099992856,56.832787099992856,56.832787099992856,56.832787099992856,56.832787099992856,57.832528200000525,57.832528200000525,58.016674200072885,x,1,0.17201370000839233,None,,,,,458621,001,2024-10-17_19h19.47.043,sequencelearning,2024.2.1,59.98307275970216,2024-10-17 19h19.50.013424 +0530,
150,v,25,1,6,v,1,0.24020180001389235,None,6,1,25,1,,,,,58.03251599997748,,58.01691560004838,58.03251599997748,59.03201950003859,59.03201950003859,59.03201950003859,59.03201950003859,59.03201950003859,60.031523199984804,60.031523199984804,60.282371500041336,v,1,0.24020180001389235,None,,,,,458621,001,2024-10-17_19h19.47.043,sequencelearning,2024.2.1,59.98307275970216,2024-10-17 19h19.50.013424 +0530,
50,c,26,2,6,c,1,0.21067940001375973,None,6,2,26,2,,,,,60.298109099967405,,60.2826055000769,60.298109099967405,61.29835310007911,61.29835310007911,61.29835310007911,61.29835310007911,61.29835310007911,62.2972618000349,62.2972618000349,62.51472770003602,c,1,0.21067940001375973,None,,,,,458621,001,2024-10-17_19h19.47.043,sequencelearning,2024.2.1,59.98307275970216,2024-10-17 19h19.50.013424 +0530,
-150,z,27,3,6,z,1,0.273428300046362,None,6,3,27,3,,,,,62.53046160005033,,62.51500750007108,62.53046160005033,63.53016119997483,63.53016119997483,63.53016119997483,63.53016119997483,63.53016119997483,64.52961530000903,64.52961530000903,64.81389880005736,z,1,0.273428300046362,None,,,,,458621,001,2024-10-17_19h19.47.043,sequencelearning,2024.2.1,59.98307275970216,2024-10-17 19h19.50.013424 +0530,
-50,x,28,0,7,x,1,0.2035551000153646,None,7,0,28,0,,,,,64.82964070001617,,64.81414100003894,64.82964070001617,65.82914140005596,65.82914140005596,65.82914140005596,65.82914140005596,65.82914140005596,66.82860280002933,66.82860280002933,67.04588570003398,x,1,0.2035551000153646,None,,,,,458621,001,2024-10-17_19h19.47.043,sequencelearning,2024.2.1,59.98307275970216,2024-10-17 19h19.50.013424 +0530,
150,v,29,1,7,v,1,0.18820750003214926,None,7,1,29,1,,,,,67.06195210001897,,67.04614370001946,67.06195210001897,68.06162080005743,68.06162080005743,68.06162080005743,68.06162080005743,68.06162080005743,69.06094230001327,69.06094230001327,69.26147460006177,v,1,0.18820750003214926,None,,,,,458621,001,2024-10-17_19h19.47.043,sequencelearning,2024.2.1,59.98307275970216,2024-10-17 19h19.50.013424 +0530,
50,c,30,2,7,c,1,0.20700160006526858,None,7,2,30,2,,,,,69.27772140002344,,69.26173779997043,69.27772140002344,70.26055570004974,70.26055570004974,70.26055570004974,70.26055570004974,70.27736090007238,71.27685540006496,71.27685540006496,71.49424540007021,c,1,0.20700160006526858,None,,,,,458621,001,2024-10-17_19h19.47.043,sequencelearning,2024.2.1,59.98307275970216,2024-10-17 19h19.50.013424 +0530,
-150,z,31,3,7,z,1,0.21592250000685453,None,7,3,31,3,,,,,71.51008010003716,,71.4945405999897,71.51008010003716,72.49288749997504,72.49288749997504,72.49288749997504,72.49288749997504,72.50963049998973,73.50924949999899,73.50924949999899,73.72684570006095,z,1,0.21592250000685453,None,,,,,458621,001,2024-10-17_19h19.47.043,sequencelearning,2024.2.1,59.98307275970216,2024-10-17 19h19.50.013424 +0530,
-50,x,32,0,8,x,1,0.1973857000702992,None,8,0,32,0,,,,,73.742524900008,,73.72717209998518,73.742524900008,74.741876999964,74.741876999964,74.741876999964,74.741876999964,74.741876999964,75.74171460000798,75.74171460000798,75.94234469998628,x,1,0.1973857000702992,None,,,,,458621,001,2024-10-17_19h19.47.043,sequencelearning,2024.2.1,59.98307275970216,2024-10-17 19h19.50.013424 +0530,
150,v,33,1,8,v,1,0.19737220008391887,None,8,1,33,1,,,,,75.95800840004813,,75.94258739997167,75.95800840004813,76.94140700006392,76.94140700006392,76.94140700006392,76.94140700006392,76.9575671000639,77.9572979999939,77.9572979999939,78.15783889999148,v,1,0.19737220008391887,None,,,,,458621,001,2024-10-17_19h19.47.043,sequencelearning,2024.2.1,59.98307275970216,2024-10-17 19h19.50.013424 +0530,
50,c,34,2,8,c,1,0.20455779996700585,None,8,2,34,2,,,,,78.17386420001276,,78.15819990006275,78.17386420001276,79.17349810001906,79.17349810001906,79.17349810001906,79.17349810001906,79.17349810001906,80.17301540006883,80.17301540006883,80.39045669999905,c,1,0.20455779996700585,None,,,,,458621,001,2024-10-17_19h19.47.043,sequencelearning,2024.2.1,59.98307275970216,2024-10-17 19h19.50.013424 +0530,
-150,z,35,3,8,z,1,0.2562614999478683,None,8,3,35,3,,,,,80.40623129997402,,80.39075290004257,80.40623129997402,81.40668850007933,81.40668850007933,81.40668850007933,81.40668850007933,81.40668850007933,82.40537589997984,82.40537589997984,82.67271329998039,z,1,0.2562614999478683,None,,,,,458621,001,2024-10-17_19h19.47.043,sequencelearning,2024.2.1,59.98307275970216,2024-10-17 19h19.50.013424 +0530,
-50,x,36,0,9,x,1,0.25050950003787875,None,9,0,36,0,,,,,82.68840210000053,,82.67296460003126,82.68840210000053,83.6880907000741,83.6880907000741,83.6880907000741,83.6880907000741,83.6880907000741,84.68767170002684,84.68767170002684,84.95504150004126,x,1,0.25050950003787875,None,,,,,458621,001,2024-10-17_19h19.47.043,sequencelearning,2024.2.1,59.98307275970216,2024-10-17 19h19.50.013424 +0530,
150,v,37,1,9,v,1,0.21400849998462945,None,9,1,37,1,,,,,84.97105050005484,,84.95533280004747,84.97105050005484,85.97050890000537,85.97050890000537,85.97050890000537,85.97050890000537,85.97050890000537,86.97017730004154,86.97017730004154,87.1876012000721,v,1,0.21400849998462945,None,,,,,458621,001,2024-10-17_19h19.47.043,sequencelearning,2024.2.1,59.98307275970216,2024-10-17 19h19.50.013424 +0530,
50,c,38,2,9,c,1,0.03623710002284497,None,9,2,38,2,,,,,87.2033007000573,,87.18790550006088,87.2033007000573,88.20375750004314,88.20375750004314,88.20375750004314,88.20375750004314,88.20375750004314,89.20230530004483,89.20230530004483,89.25297759997193,c,1,0.03623710002284497,None,,,,,458621,001,2024-10-17_19h19.47.043,sequencelearning,2024.2.1,59.98307275970216,2024-10-17 19h19.50.013424 +0530,
-150,z,39,3,9,z,1,0.32456940005067736,None,9,3,39,3,,,,,89.26917520002462,,89.2532499000663,89.26917520002462,90.26873989996966,90.26873989996966,90.26873989996966,90.26873989996966,90.26873989996966,91.26829190005083,91.26829190005083,91.6025299000321,z,1,0.32456940005067736,None,,,,,458621,001,2024-10-17_19h19.47.043,sequencelearning,2024.2.1,59.98307275970216,2024-10-17 19h19.50.013424 +0530,
-50,x,40,0,10,x,1,0.2248206000076607,None,10,0,40,0,,,,,91.61793850001413,,91.60279290005565,91.61793850001413,92.61752440000419,92.61752440000419,92.61752440000419,92.61752440000419,92.61752440000419,93.61723119998351,93.61723119998351,93.85126729996409,x,1,0.2248206000076607,None,,,,,458621,001,2024-10-17_19h19.47.043,sequencelearning,2024.2.1,59.98307275970216,2024-10-17 19h19.50.013424 +0530,
150,v,41,1,10,v,1,0.11512179998680949,None,10,1,41,1,,,,,93.86712990002707,,93.8515964000253,93.86712990002707,94.86689090006985,94.86689090006985,94.86689090006985,94.86689090006985,94.86689090006985,95.86631960002705,95.86631960002705,95.98342190007679,v,1,0.11512179998680949,None,,,,,458621,001,2024-10-17_19h19.47.043,sequencelearning,2024.2.1,59.98307275970216,2024-10-17 19h19.50.013424 +0530,
50,c,42,2,10,c,1,0.22164459992200136,None,10,2,42,2,,,,,95.99965390004218,,95.98374900000636,95.99965390004218,96.98268420004752,96.98268420004752,96.98268420004752,96.98268420004752,96.99900539999362,97.99894970003515,97.99894970003515,98.23287629999686,c,1,0.22164459992200136,None,,,,,458621,001,2024-10-17_19h19.47.043,sequencelearning,2024.2.1,59.98307275970216,2024-10-17 19h19.50.013424 +0530,
-150,z,43,3,10,z,1,0.2860069000162184,None,10,3,43,3,,,,,98.24884050001856,,98.23313980002422,98.24884050001856,99.2480724999914,99.2480724999914,99.2480724999914,99.2480724999914,99.2480724999914,100.24762150004972,100.24762150004972,100.54925040004309,z,1,0.2860069000162184,None,,,,,458621,001,2024-10-17_19h19.47.043,sequencelearning,2024.2.1,59.98307275970216,2024-10-17 19h19.50.013424 +0530,
-50,x,44,0,11,x,1,0.22351049992721528,None,11,0,44,0,,,,,100.56448150007054,,100.54955270001665,100.56448150007054,101.56380200001877,101.56380200001877,101.56380200001877,101.56380200001877,101.56380200001877,102.56343179999385,102.56343179999385,102.79728000005707,x,1,0.22351049992721528,None,,,,,458621,001,2024-10-17_19h19.47.043,sequencelearning,2024.2.1,59.98307275970216,2024-10-17 19h19.50.013424 +0530,
150,v,45,1,11,v,1,0.2285381999099627,None,11,1,45,1,,,,,102.81316580006387,,102.79758130002301,102.81316580006387,103.81273310002871,103.81273310002871,103.81273310002871,103.81273310002871,103.81273310002871,104.81228409998585,104.81228409998585,105.04617109999526,v,1,0.2285381999099627,None,,,,,458621,001,2024-10-17_19h19.47.043,sequencelearning,2024.2.1,59.98307275970216,2024-10-17 19h19.50.013424 +0530,
50,c,46,2,11,c,1,0.23136769991833717,None,11,2,46,2,,,,,105.0622973999707,,105.0464256000705,105.0622973999707,106.06195610004943,106.06195610004943,106.06195610004943,106.06195610004943,106.06195610004943,107.06138870003633,107.06138870003633,107.29524960007984,c,1,0.23136769991833717,None,,,,,458621,001,2024-10-17_19h19.47.043,sequencelearning,2024.2.1,59.98307275970216,2024-10-17 19h19.50.013424 +0530,
-150,z,47,3,11,z,1,0.22755599999800324,None,11,3,47,3,,,,,107.3111867000116,,107.2955022000242,107.3111867000116,108.29435340000782,108.29435340000782,108.29435340000782,108.29435340000782,108.31141690001823,109.31095189996995,109.31095189996995,109.54440500005148,z,1,0.22755599999800324,None,,,,,458621,001,2024-10-17_19h19.47.043,sequencelearning,2024.2.1,59.98307275970216,2024-10-17 19h19.50.013424 +0530,
-50,x,48,0,12,x,1,0.2277311000507325,None,12,0,48,0,,,,,109.56034189998172,,109.54472380003426,109.56034189998172,110.54312749998644,110.54312749998644,110.54312749998644,110.54312749998644,110.56005079997703,111.55961900006514,111.55961900006514,111.79371030000038,x,1,0.2277311000507325,None,,,,,458621,001,2024-10-17_19h19.47.043,sequencelearning,2024.2.1,59.98307275970216,2024-10-17 19h19.50.013424 +0530,
150,v,49,1,12,v,1,0.24053469998762012,None,12,1,49,1,,,,,111.80937140004244,,111.79395810002461,111.80937140004244,112.80905689997599,112.80905689997599,112.80905689997599,112.80905689997599,112.80905689997599,113.80858930002432,113.80858930002432,114.0594892000081,v,1,0.24053469998762012,None,,,,,458621,001,2024-10-17_19h19.47.043,sequencelearning,2024.2.1,59.98307275970216,2024-10-17 19h19.50.013424 +0530,
50,c,50,2,12,c,1,0.2318011000752449,None,12,2,50,2,,,,,114.07510210003238,,114.05974719999358,114.07510210003238,115.07451569999103,115.07451569999103,115.07451569999103,115.07451569999103,115.07451569999103,116.07423320005182,116.07423320005182,116.30822979996447,c,1,0.2318011000752449,None,,,,,458621,001,2024-10-17_19h19.47.043,sequencelearning,2024.2.1,59.98307275970216,2024-10-17 19h19.50.013424 +0530,
-150,z,51,3,12,z,1,0.3256656000157818,None,12,3,51,3,,,,,116.32397799997125,,116.3085151000414,116.32397799997125,117.32438060001004,117.32438060001004,117.32438060001004,117.32438060001004,117.32438060001004,118.32333539996762,118.32333539996762,118.65748860000167,z,1,0.3256656000157818,None,,,,,458621,001,2024-10-17_19h19.47.043,sequencelearning,2024.2.1,59.98307275970216,2024-10-17 19h19.50.013424 +0530,
-50,x,52,0,13,x,1,0.24349069991149008,None,13,0,52,0,,,,,118.67316910007503,,118.65783120004926,118.67316910007503,119.67275660007726,119.67275660007726,119.67275660007726,119.67275660007726,119.67275660007726,120.67220799997449,120.67220799997449,120.92312659998424,x,1,0.24349069991149008,None,,,,,458621,001,2024-10-17_19h19.47.043,sequencelearning,2024.2.1,59.98307275970216,2024-10-17 19h19.50.013424 +0530,
150,v,53,1,13,v,1,0.20597030001226813,None,13,1,53,1,,,,,120.93890619999729,,120.9233777000336,120.93890619999729,121.93842799996492,121.93842799996492,121.93842799996492,121.93842799996492,121.93842799996492,122.9383066999726,122.9383066999726,123.15556780004408,v,1,0.20597030001226813,None,,,,,458621,001,2024-10-17_19h19.47.043,sequencelearning,2024.2.1,59.98307275970216,2024-10-17 19h19.50.013424 +0530,
50,c,54,2,13,c,1,0.22373650001827627,None,13,2,54,2,,,,,123.17115160007961,,123.15581390005536,123.17115160007961,124.17150010005571,124.17150010005571,124.17150010005571,124.17150010005571,124.17150010005571,125.17024410003796,125.17024410003796,125.40433739998844,c,1,0.22373650001827627,None,,,,,458621,001,2024-10-17_19h19.47.043,sequencelearning,2024.2.1,59.98307275970216,2024-10-17 19h19.50.013424 +0530,
-150,z,55,3,13,z,1,0.22554549993947148,None,13,3,55,3,,,,,125.42032290005591,,125.40461890003644,125.42032290005591,126.41985710000154,126.41985710000154,126.41985710000154,126.41985710000154,126.41985710000154,127.41929770004936,127.41929770004936,127.65339350001886,z,1,0.22554549993947148,None,,,,,458621,001,2024-10-17_19h19.47.043,sequencelearning,2024.2.1,59.98307275970216,2024-10-17 19h19.50.013424 +0530,
-50,x,56,0,14,x,1,0.17257380008231848,None,14,0,56,0,,,,,127.66921169997659,,127.65364839998074,127.66921169997659,128.66875800001435,128.66875800001435,128.66875800001435,128.66875800001435,128.66875800001435,129.6683514000615,129.6683514000615,129.85242920008022,x,1,0.17257380008231848,None,,,,,458621,001,2024-10-17_19h19.47.043,sequencelearning,2024.2.1,59.98307275970216,2024-10-17 19h19.50.013424 +0530,
150,v,57,1,14,v,1,0.2213812000118196,None,14,1,57,1,,,,,129.8683175999904,,129.85267310007475,129.8683175999904,130.8677796999691,130.8677796999691,130.8677796999691,130.8677796999691,130.8677796999691,131.86726920004003,131.86726920004003,132.10123150004074,v,1,0.2213812000118196,None,,,,,458621,001,2024-10-17_19h19.47.043,sequencelearning,2024.2.1,59.98307275970216,2024-10-17 19h19.50.013424 +0530,
50,c,58,2,14,c,1,0.20794639992527664,None,14,2,58,2,,,,,132.11742919997778,,132.10153500002343,132.11742919997778,133.1001294000307,133.1001294000307,133.1001294000307,133.1001294000307,133.1169213000685,134.11645460000727,134.11645460000727,134.33369840006344,c,1,0.20794639992527664,None,,,,,458621,001,2024-10-17_19h19.47.043,sequencelearning,2024.2.1,59.98307275970216,2024-10-17 19h19.50.013424 +0530,
-150,z,59,3,14,z,1,0.20127340010367334,None,14,3,59,3,,,,,134.3496341999853,,134.3340447000228,134.3496341999853,135.34956500004046,135.34956500004046,135.34956500004046,135.34956500004046,135.34956500004046,136.34885609999765,136.34885609999765,136.5664953000378,z,1,0.20127340010367334,None,,,,,458621,001,2024-10-17_19h19.47.043,sequencelearning,2024.2.1,59.98307275970216,2024-10-17 19h19.50.013424 +0530,
-50,x,60,0,15,x,1,0.9111773000331596,None,15,0,60,0,,,,,136.5821179000195,,136.56679810001515,136.5821179000195,137.58169969997834,137.58169969997834,137.58169969997834,137.58169969997834,137.58169969997834,138.58168810000643,138.58168810000643,139.49815230001695,x,1,0.9111773000331596,None,,,,,458621,001,2024-10-17_19h19.47.043,sequencelearning,2024.2.1,59.98307275970216,2024-10-17 19h19.50.013424 +0530,
150,v,61,1,15,v,1,0.21093739999923855,None,15,1,61,1,,,,,139.5141998999752,,139.49848189996555,139.5141998999752,140.51377499999944,140.51377499999944,140.51377499999944,140.51377499999944,140.51377499999944,141.51334790000692,141.51334790000692,141.7305825999938,v,1,0.21093739999923855,None,,,,,458621,001,2024-10-17_19h19.47.043,sequencelearning,2024.2.1,59.98307275970216,2024-10-17 19h19.50.013424 +0530,
50,c,62,2,15,c,1,0.1734894000692293,None,15,2,62,2,,,,,141.74663700000383,,141.73088310007006,141.74663700000383,142.74605269997846,142.74605269997846,142.74605269997846,142.74605269997846,142.74605269997846,143.74546980008017,143.74546980008017,143.9295082000317,c,1,0.1734894000692293,None,,,,,458621,001,2024-10-17_19h19.47.043,sequencelearning,2024.2.1,59.98307275970216,2024-10-17 19h19.50.013424 +0530,
-150,z,63,3,15,z,1,0.20174609997775406,None,15,3,63,3,,,,,143.94565030001104,,143.92983899998944,143.94565030001104,144.92856839997694,144.92856839997694,144.92856839997694,144.92856839997694,144.945233299979,145.9446979999775,145.9446979999775,146.1620865999721,z,1,0.20174609997775406,None,,,,,458621,001,2024-10-17_19h19.47.043,sequencelearning,2024.2.1,59.98307275970216,2024-10-17 19h19.50.013424 +0530,
-50,x,64,0,16,x,1,0.057922299951314926,None,16,0,64,0,,,,,146.1779344000388,,146.16244360001292,146.1779344000388,147.17794880003203,147.17794880003203,147.17794880003203,147.17794880003203,147.17794880003203,148.17705200007185,148.17705200007185,148.24469550000504,x,1,0.057922299951314926,None,,,,,458621,001,2024-10-17_19h19.47.043,sequencelearning,2024.2.1,59.98307275970216,2024-10-17 19h19.50.013424 +0530,
150,v,65,1,16,v,1,0.2362898999126628,None,16,1,65,1,,,,,148.26033149997238,,148.24493909999728,148.26033149997238,149.26003960007802,149.26003960007802,149.26003960007802,149.26003960007802,149.26003960007802,150.25951690005604,150.25951690005604,150.51025789999403,v,1,0.2362898999126628,None,,,,,458621,001,2024-10-17_19h19.47.043,sequencelearning,2024.2.1,59.98307275970216,2024-10-17 19h19.50.013424 +0530,
50,c,66,2,16,c,1,0.2172036999836564,None,16,2,66,2,,,,,150.52586840000004,,150.51049540005624,150.52586840000004,151.52568029996473,151.52568029996473,151.52568029996473,151.52568029996473,151.52568029996473,152.52514340006746,152.52514340006746,152.7593504000688,c,1,0.2172036999836564,None,,,,,458621,001,2024-10-17_19h19.47.043,sequencelearning,2024.2.1,59.98307275970216,2024-10-17 19h19.50.013424 +0530,
-150,z,67,3,16,z,1,0.2542449999600649,None,16,3,67,3,,,,,152.77526819997001,,152.75966009998228,152.77526819997001,153.77470559999347,153.77470559999347,153.77470559999347,153.77470559999347,153.77470559999347,154.77439619996585,154.77439619996585,155.0416737999767,z,1,0.2542449999600649,None,,,,,458621,001,2024-10-17_19h19.47.043,sequencelearning,2024.2.1,59.98307275970216,2024-10-17 19h19.50.013424 +0530,
-50,x,68,0,17,x,1,0.19687300000805408,None,17,0,68,0,,,,,155.05743639997672,,155.04192109999713,155.05743639997672,156.05692950007506,156.05692950007506,156.05692950007506,156.05692950007506,156.05692950007506,157.05661490000784,157.05661490000784,157.25708720006514,x,1,0.19687300000805408,None,,,,,458621,001,2024-10-17_19h19.47.043,sequencelearning,2024.2.1,59.98307275970216,2024-10-17 19h19.50.013424 +0530,
150,v,69,1,17,v,1,0.21807370008900762,None,17,1,69,1,,,,,157.27361280005425,,157.25738099997398,157.27361280005425,158.272817100049,158.272817100049,158.272817100049,158.272817100049,158.272817100049,159.272454299964,159.272454299964,159.50642750004772,v,1,0.21807370008900762,None,,,,,458621,001,2024-10-17_19h19.47.043,sequencelearning,2024.2.1,59.98307275970216,2024-10-17 19h19.50.013424 +0530,
50,c,70,2,17,c,1,0.2055065999738872,None,17,2,70,2,,,,,159.52219629997853,,159.50667749997228,159.52219629997853,160.52173080004286,160.52173080004286,160.52173080004286,160.52173080004286,160.52173080004286,161.52142430003732,161.52142430003732,161.73876630002633,c,1,0.2055065999738872,None,,,,,458621,001,2024-10-17_19h19.47.043,sequencelearning,2024.2.1,59.98307275970216,2024-10-17 19h19.50.013424 +0530,
-150,z,71,3,17,z,1,0.3037231999915093,None,17,3,71,3,,,,,161.75451550004072,,161.73901869996917,161.75451550004072,162.75394640001468,162.75394640001468,162.75394640001468,162.75394640001468,162.75394640001468,163.75377890001982,163.75377890001982,164.0711670999881,z,1,0.3037231999915093,None,,,,,458621,001,2024-10-17_19h19.47.043,sequencelearning,2024.2.1,59.98307275970216,2024-10-17 19h19.50.013424 +0530,
-50,x,72,0,18,x,1,0.22895999997854233,None,18,0,72,0,,,,,164.08680420008022,,164.07141069998033,164.08680420008022,165.0864151000278,165.0864151000278,165.0864151000278,165.0864151000278,165.0864151000278,166.08610499999486,166.08610499999486,166.31982700002845,x,1,0.22895999997854233,None,,,,,458621,001,2024-10-17_19h19.47.043,sequencelearning,2024.2.1,59.98307275970216,2024-10-17 19h19.50.013424 +0530,
150,v,73,1,18,v,1,0.17267900006845593,None,18,1,73,1,,,,,166.3359427000396,,166.32011680002324,166.3359427000396,167.31885010004044,167.31885010004044,167.31885010004044,167.31885010004044,167.3356488000136,168.3350766999647,168.3350766999647,168.51878959999885,v,1,0.17267900006845593,None,,,,,458621,001,2024-10-17_19h19.47.043,sequencelearning,2024.2.1,59.98307275970216,2024-10-17 19h19.50.013424 +0530,
50,c,74,2,18,c,1,0.15472130000125617,None,18,2,74,2,,,,,168.5350960000651,,168.5191592000192,168.5350960000651,169.51841220003553,169.51841220003553,169.51841220003553,169.51841220003553,169.53493409999646,170.53412129997741,170.53412129997741,170.70166200003587,c,1,0.15472130000125617,None,,,,,458621,001,2024-10-17_19h19.47.043,sequencelearning,2024.2.1,59.98307275970216,2024-10-17 19h19.50.013424 +0530,
-150,z,75,3,18,z,1,0.22022209991700947,None,18,3,75,3,,,,,170.7172520000022,,170.70190210000146,170.7172520000022,171.7173927000258,171.7173927000258,171.7173927000258,171.7173927000258,171.7173927000258,172.71660240006167,172.71660240006167,172.95043440000154,z,1,0.22022209991700947,None,,,,,458621,001,2024-10-17_19h19.47.043,sequencelearning,2024.2.1,59.98307275970216,2024-10-17 19h19.50.013424 +0530,
-50,x,76,0,19,x,1,0.21764839999377728,None,19,0,76,0,,,,,172.96638280001935,,172.95069329999387,172.96638280001935,173.94991520000622,173.94991520000622,173.94991520000622,173.94991520000622,173.9664871999994,174.94947120000143,174.94947120000143,175.1824845999945,x,1,0.21764839999377728,None,,,,,458621,001,2024-10-17_19h19.47.043,sequencelearning,2024.2.1,59.98307275970216,2024-10-17 19h19.50.013424 +0530,
150,v,77,1,19,v,1,0.7290285000344738,None,19,1,77,1,,,,,175.1988593999995,,175.1828088000184,175.1988593999995,176.18165270006284,176.18165270006284,176.18165270006284,176.18165270006284,176.19839629996568,177.19787480006926,177.19787480006926,177.93163969996385,v,1,0.7290285000344738,None,,,,,458621,001,2024-10-17_19h19.47.043,sequencelearning,2024.2.1,59.98307275970216,2024-10-17 19h19.50.013424 +0530,
50,c,78,2,19,c,1,0.24908619991037995,None,19,2,78,2,,,,,177.94739340001252,,177.93188779999036,177.94739340001252,178.9476131000556,178.9476131000556,178.9476131000556,178.9476131000556,178.9476131000556,179.94674509996548,179.94674509996548,180.19764999998733,c,1,0.24908619991037995,None,,,,,458621,001,2024-10-17_19h19.47.043,sequencelearning,2024.2.1,59.98307275970216,2024-10-17 19h19.50.013424 +0530,
-150,z,79,3,19,z,1,0.30635239998809993,None,19,3,79,3,,,,,180.21334460005164,,180.19790640007704,180.21334460005164,181.21274320001248,181.21274320001248,181.21274320001248,181.21274320001248,181.21274320001248,182.21231750003062,182.21231750003062,182.5296419999795,z,1,0.30635239998809993,None,,,,,458621,001,2024-10-17_19h19.47.043,sequencelearning,2024.2.1,59.98307275970216,2024-10-17 19h19.50.013424 +0530,
-50,x,80,0,20,x,1,0.2336990999756381,None,20,0,80,0,,,,,182.54566200007685,,182.52988629997708,182.54566200007685,183.54510810005013,183.54510810005013,183.54510810005013,183.54510810005013,183.54510810005013,184.54466570005752,184.54466570005752,184.79548139998224,x,1,0.2336990999756381,None,,,,,458621,001,2024-10-17_19h19.47.043,sequencelearning,2024.2.1,59.98307275970216,2024-10-17 19h19.50.013424 +0530,
150,v,81,1,20,v,1,0.21572760003618896,None,20,1,81,1,,,,,184.81129420001525,,184.79577900003642,184.81129420001525,185.81072010006756,185.81072010006756,185.81072010006756,185.81072010006756,185.81072010006756,186.81033000000753,186.81033000000753,187.02789719996508,v,1,0.21572760003618896,None,,,,,458621,001,2024-10-17_19h19.47.043,sequencelearning,2024.2.1,59.98307275970216,2024-10-17 19h19.50.013424 +0530,
50,c,82,2,20,c,1,0.19708479999098927,None,20,2,82,2,,,,,187.04374270001426,,187.0281342000235,187.04374270001426,188.04328950005583,188.04328950005583,188.04328950005583,188.04328950005583,188.04328950005583,189.04271279997192,189.04271279997192,189.24341240001377,c,1,0.19708479999098927,None,,,,,458621,001,2024-10-17_19h19.47.043,sequencelearning,2024.2.1,59.98307275970216,2024-10-17 19h19.50.013424 +0530,
-150,z,83,3,20,z,1,0.22906589997000992,None,20,3,83,3,,,,,189.25956649996806,,189.24379249999765,189.25956649996806,190.25901939999312,190.25901939999312,190.25901939999312,190.25901939999312,190.25901939999312,191.25857629999518,191.25857629999518,191.4922716000583,z,1,0.22906589997000992,None,,,,,458621,001,2024-10-17_19h19.47.043,sequencelearning,2024.2.1,59.98307275970216,2024-10-17 19h19.50.013424 +0530,
-50,x,84,0,21,x,1,0.19271520001348108,None,21,0,84,0,,,,,191.5084041999653,,191.49250819999725,191.5084041999653,192.49129340006039,192.49129340006039,192.49129340006039,192.49129340006039,192.50790830003098,193.5075375000015,193.5075375000015,193.70840760006104,x,1,0.19271520001348108,None,,,,,458621,001,2024-10-17_19h19.47.043,sequencelearning,2024.2.1,59.98307275970216,2024-10-17 19h19.50.013424 +0530,
150,v,85,1,21,v,1,0.23655870009679347,None,21,1,85,1,,,,,193.72423689998686,,193.7087065000087,193.72423689998686,194.72377200005576,194.72377200005576,194.72377200005576,194.72377200005576,194.72377200005576,195.72342629998457,195.72342629998457,195.9740746000316,v,1,0.23655870009679347,None,,,,,458621,001,2024-10-17_19h19.47.043,sequencelearning,2024.2.1,59.98307275970216,2024-10-17 19h19.50.013424 +0530,
50,c,86,2,21,c,1,0.20491049997508526,None,21,2,86,2,,,,,195.98989199998323,,195.97439109999686,195.98989199998323,196.9894150000764,196.9894150000764,196.9894150000764,196.9894150000764,196.9894150000764,197.9889690000564,197.9889690000564,198.2064936000388,c,1,0.20491049997508526,None,,,,,458621,001,2024-10-17_19h19.47.043,sequencelearning,2024.2.1,59.98307275970216,2024-10-17 19h19.50.013424 +0530,
-150,z,87,3,21,z,1,0.21725449990481138,None,21,3,87,3,,,,,198.2221281999955,,198.20683809998445,198.2221281999955,199.22174080007244,199.22174080007244,199.22174080007244,199.22174080007244,199.22174080007244,200.2214707999956,200.2214707999956,200.45552690001205,z,1,0.21725449990481138,None,,,,,458621,001,2024-10-17_19h19.47.043,sequencelearning,2024.2.1,59.98307275970216,2024-10-17 19h19.50.013424 +0530,
-50,x,88,0,22,x,1,0.21032780001405627,None,22,0,88,0,,,,,200.47124710003845,,200.45580430002883,200.47124710003845,201.47068590007257,201.47068590007257,201.47068590007257,201.47068590007257,201.47068590007257,202.47034160001203,202.47034160001203,202.68755210004747,x,1,0.21032780001405627,None,,,,,458621,001,2024-10-17_19h19.47.043,sequencelearning,2024.2.1,59.98307275970216,2024-10-17 19h19.50.013424 +0530,
150,v,89,1,22,v,1,0.20583889994304627,None,22,1,89,1,,,,,202.70357220002916,,202.68786110007204,202.70357220002916,203.70325590006541,203.70325590006541,203.70325590006541,203.70325590006541,203.70325590006541,204.70269770000596,204.70269770000596,204.92004570004065,v,1,0.20583889994304627,None,,,,,458621,001,2024-10-17_19h19.47.043,sequencelearning,2024.2.1,59.98307275970216,2024-10-17 19h19.50.013424 +0530,
50,c,90,2,22,c,1,0.2002191999927163,None,22,2,90,2,,,,,204.93599460006226,,204.92029889998958,204.93599460006226,205.9354667000007,205.9354667000007,205.9354667000007,205.9354667000007,205.9354667000007,206.93515450006817,206.93515450006817,207.15270960005,c,1,0.2002191999927163,None,,,,,458621,001,2024-10-17_19h19.47.043,sequencelearning,2024.2.1,59.98307275970216,2024-10-17 19h19.50.013424 +0530,
-150,z,91,3,22,z,1,0.23020950006321073,None,22,3,91,3,,,,,207.16835320007522,,207.1529784000013,207.16835320007522,208.1679527000524,208.1679527000524,208.1679527000524,208.1679527000524,208.1679527000524,209.16751200007275,209.16751200007275,209.4011884999927,z,1,0.23020950006321073,None,,,,,458621,001,2024-10-17_19h19.47.043,sequencelearning,2024.2.1,59.98307275970216,2024-10-17 19h19.50.013424 +0530,
-50,x,92,0,23,x,1,0.0155670999083668,None,23,0,92,0,,,,,209.41749769996386,,209.40144789998885,209.41749769996386,210.40039299998898,210.40039299998898,210.40039299998898,210.40039299998898,210.41701179998927,211.41661159996875,211.41661159996875,211.43402270006482,x,1,0.0155670999083668,None,,,,,458621,001,2024-10-17_19h19.47.043,sequencelearning,2024.2.1,59.98307275970216,2024-10-17 19h19.50.013424 +0530,
150,v,93,1,23,v,1,0.2442320000845939,None,23,1,93,1,,,,,211.44994459999725,,211.43435800005682,211.44994459999725,212.44948830001522,212.44948830001522,212.44948830001522,212.44948830001522,212.44948830001522,213.44914240005892,213.44914240005892,213.7003445000155,v,1,0.2442320000845939,None,,,,,458621,001,2024-10-17_19h19.47.043,sequencelearning,2024.2.1,59.98307275970216,2024-10-17 19h19.50.013424 +0530,
50,c,94,2,23,c,1,0.10437930002808571,None,23,2,94,2,,,,,213.71548090002034,,213.70064190006815,213.71548090002034,214.71505600004457,214.71505600004457,214.71505600004457,214.71505600004457,214.71505600004457,215.71471430000383,215.71471430000383,215.83221919997595,c,1,0.10437930002808571,None,,,,,458621,001,2024-10-17_19h19.47.043,sequencelearning,2024.2.1,59.98307275970216,2024-10-17 19h19.50.013424 +0530,
-150,z,95,3,23,z,1,0.26226760004647076,None,23,3,95,3,,,,,215.84821500000544,,215.8325503000524,215.84821500000544,216.84760600002483,216.84760600002483,216.84760600002483,216.84760600002483,216.84760600002483,217.84712050005328,217.84712050005328,218.11473340005614,z,1,0.26226760004647076,None,,,,,458621,001,2024-10-17_19h19.47.043,sequencelearning,2024.2.1,59.98307275970216,2024-10-17 19h19.50.013424 +0530,
-50,x,96,0,24,x,1,0.20101750001776963,None,24,0,96,0,,,,,218.1303688000189,,218.11510359996464,218.1303688000189,219.1300335000269,219.1300335000269,219.1300335000269,219.1300335000269,219.1300335000269,220.12949169997592,220.12949169997592,220.34695779997855,x,1,0.20101750001776963,None,,,,,458621,001,2024-10-17_19h19.47.043,sequencelearning,2024.2.1,59.98307275970216,2024-10-17 19h19.50.013424 +0530,
150,v,97,1,24,v,1,0.2305627999594435,None,24,1,97,1,,,,,220.36275620001834,,220.34720429999288,220.36275620001834,221.3622596000787,221.3622596000787,221.3622596000787,221.3622596000787,221.3622596000787,222.3617545000743,222.3617545000743,222.59578249999322,v,1,0.2305627999594435,None,,,,,458621,001,2024-10-17_19h19.47.043,sequencelearning,2024.2.1,59.98307275970216,2024-10-17 19h19.50.013424 +0530,
50,c,98,2,24,c,1,0.24638520006556064,None,24,2,98,2,,,,,222.61175500007812,,222.59610450000037,222.61175500007812,223.61146829999052,223.61146829999052,223.61146829999052,223.61146829999052,223.61146829999052,224.6109041000018,224.6109041000018,224.86156660004053,c,1,0.24638520006556064,None,,,,,458621,001,2024-10-17_19h19.47.043,sequencelearning,2024.2.1,59.98307275970216,2024-10-17 19h19.50.013424 +0530,
-150,z,99,3,24,z,1,0.21712819999083877,None,24,3,99,3,,,,,224.87736420007423,,224.86185790004674,224.87736420007423,225.87689090007916,225.87689090007916,225.87689090007916,225.87689090007916,225.87689090007916,226.8769896000158,226.8769896000158,227.110785100027,z,1,0.21712819999083877,None,,,,,458621,001,2024-10-17_19h19.47.043,sequencelearning,2024.2.1,59.98307275970216,2024-10-17 19h19.50.013424 +0530,
-50,x,100,0,25,x,1,0.1856444999575615,None,25,0,100,0,,,,,227.12634499999695,,227.11102880002,227.12634499999695,228.12604000000283,228.12604000000283,228.12604000000283,228.12604000000283,228.12604000000283,229.12558430002537,229.12558430002537,229.32621570001356,x,1,0.1856444999575615,None,,,,,458621,001,2024-10-17_19h19.47.043,sequencelearning,2024.2.1,59.98307275970216,2024-10-17 19h19.50.013424 +0530,
150,v,101,1,25,v,1,0.14007359999231994,None,25,1,101,1,,,,,229.34250879997853,,229.32653109997045,229.34250879997853,230.34211289999075,230.34211289999075,230.34211289999075,230.34211289999075,230.34211289999075,231.34142000006977,231.34142000006977,231.4919721999904,v,1,0.14007359999231994,None,,,,,458621,001,2024-10-17_19h19.47.043,sequencelearning,2024.2.1,59.98307275970216,2024-10-17 19h19.50.013424 +0530,
50,c,102,2,25,c,1,0.21676590002607554,None,25,2,102,2,,,,,231.507925300044,,231.49233100004494,231.507925300044,232.50758049997967,232.50758049997967,232.50758049997967,232.50758049997967,232.50758049997967,233.50700930005405,233.50700930005405,233.7253165000584,c,1,0.21676590002607554,None,,,,,458621,001,2024-10-17_19h19.47.043,sequencelearning,2024.2.1,59.98307275970216,2024-10-17 19h19.50.013424 +0530,
-150,z,103,3,25,z,1,0.18613390007521957,None,25,3,103,3,,,,,233.74036639998667,,233.72559579997323,233.74036639998667,234.74007399997208,234.74007399997208,234.74007399997208,234.74007399997208,234.74007399997208,235.73954380000941,235.73954380000941,235.9400441000471,z,1,0.18613390007521957,None,,,,,458621,001,2024-10-17_19h19.47.043,sequencelearning,2024.2.1,59.98307275970216,2024-10-17 19h19.50.013424 +0530,
-50,x,104,0,26,x,1,0.1329588999506086,None,26,0,104,0,,,,,235.95605270005763,,235.9402873000363,235.95605270005763,236.95555489999242,236.95555489999242,236.95555489999242,236.95555489999242,236.95555489999242,237.9550422000466,237.9550422000466,238.08968950004783,x,1,0.1329588999506086,None,,,,,458621,001,2024-10-17_19h19.47.043,sequencelearning,2024.2.1,59.98307275970216,2024-10-17 19h19.50.013424 +0530,
150,v,105,1,26,v,1,0.18689540005289018,None,26,1,105,1,,,,,238.10502510005608,,238.0899620000273,238.10502510005608,239.10466120007914,239.10466120007914,239.10466120007914,239.10466120007914,239.10466120007914,240.10429789999034,240.10429789999034,240.30505379999522,v,1,0.18689540005289018,None,,,,,458621,001,2024-10-17_19h19.47.043,sequencelearning,2024.2.1,59.98307275970216,2024-10-17 19h19.50.013424 +0530,
50,c,106,2,26,c,1,0.2001474000280723,None,26,2,106,2,,,,,240.32093230006285,,240.3053007000126,240.32093230006285,241.32036120002158,241.32036120002158,241.32036120002158,241.32036120002158,241.32036120002158,242.31990590004716,242.31990590004716,242.52150280005299,c,1,0.2001474000280723,None,,,,,458621,001,2024-10-17_19h19.47.043,sequencelearning,2024.2.1,59.98307275970216,2024-10-17 19h19.50.013424 +0530,
-150,z,107,3,26,z,1,0.15653300005942583,None,26,3,107,3,,,,,242.53652119997423,,242.5217638000613,242.53652119997423,243.53611880005337,243.53611880005337,243.53611880005337,243.53611880005337,243.53611880005337,244.53574399999343,244.53574399999343,244.70279919996392,z,1,0.15653300005942583,None,,,,,458621,001,2024-10-17_19h19.47.043,sequencelearning,2024.2.1,59.98307275970216,2024-10-17 19h19.50.013424 +0530,
-50,x,108,0,27,x,1,0.18958819995168597,None,27,0,108,0,,,,,244.71880759997293,,244.7030412000604,244.71880759997293,245.70195060002152,245.70195060002152,245.70195060002152,245.70195060002152,245.71831929998007,246.7180520000402,246.7180520000402,246.91855569998734,x,1,0.18958819995168597,None,,,,,458621,001,2024-10-17_19h19.47.043,sequencelearning,2024.2.1,59.98307275970216,2024-10-17 19h19.50.013424 +0530,
150,v,109,1,27,v,1,0.14231449994258583,None,27,1,109,1,,,,,246.93461090000346,,246.91886570001952,246.93461090000346,247.93420969997533,247.93420969997533,247.93420969997533,247.93420969997533,247.93420969997533,248.9339560000226,248.9339560000226,249.08408180007245,v,1,0.14231449994258583,None,,,,,458621,001,2024-10-17_19h19.47.043,sequencelearning,2024.2.1,59.98307275970216,2024-10-17 19h19.50.013424 +0530,
50,c,110,2,27,c,1,0.22615420003421605,None,27,2,110,2,,,,,249.1003347999649,,249.08440779999364,249.1003347999649,250.08322689996567,250.08322689996567,250.08322689996567,250.08322689996567,250.09998150006868,251.0996170999715,251.0996170999715,251.3334583999822,c,1,0.22615420003421605,None,,,,,458621,001,2024-10-17_19h19.47.043,sequencelearning,2024.2.1,59.98307275970216,2024-10-17 19h19.50.013424 +0530,
-150,z,111,3,27,z,1,0.18866610003169626,None,27,3,111,3,,,,,251.34941530006472,,251.33370489999652,251.34941530006472,252.348967500031,252.348967500031,252.348967500031,252.348967500031,252.348967500031,253.348504900001,253.348504900001,253.54921600001398,z,1,0.18866610003169626,None,,,,,458621,001,2024-10-17_19h19.47.043,sequencelearning,2024.2.1,59.98307275970216,2024-10-17 19h19.50.013424 +0530,
-50,x,112,0,28,x,1,0.11708110000472516,None,28,0,112,0,,,,,253.5652011000784,,253.54962160007562,253.5652011000784,254.5646557,254.5646557,254.5646557,254.5646557,254.5646557,255.56409390002955,255.56409390002955,255.69849089998752,x,1,0.11708110000472516,None,,,,,458621,001,2024-10-17_19h19.47.043,sequencelearning,2024.2.1,59.98307275970216,2024-10-17 19h19.50.013424 +0530,
150,v,113,1,28,v,1,0.1343330000527203,None,28,1,113,1,,,,,255.71412330004387,,255.69874550006352,255.71412330004387,256.7138392999768,256.7138392999768,256.7138392999768,256.7138392999768,256.7138392999768,257.71313839999493,257.71313839999493,257.8644230000209,v,1,0.1343330000527203,None,,,,,458621,001,2024-10-17_19h19.47.043,sequencelearning,2024.2.1,59.98307275970216,2024-10-17 19h19.50.013424 +0530,
50,c,114,2,28,c,1,None,None,28,2,114,2,,,,,257.8803541000234,,257.86467639997136,257.8803541000234,258.87941629998386,258.87941629998386,258.87941629998386,258.87941629998386,258.87941629998386,259.87895529996604,259.87895529996604,260.01273439999204,c,1,None,None,,,,,458621,001,2024-10-17_19h19.47.043,sequencelearning,2024.2.1,59.98307275970216,2024-10-17 19h19.50.013424 +0530,
-150,z,115,3,28,z,1,0.14689490001183003,None,28,3,115,3,,,,,260.0289810000686,,260.0130747000221,260.0289810000686,261.01193370006513,261.01193370006513,261.01193370006513,261.01193370006513,261.02860389999114,262.0281927000033,262.0281927000033,262.1786661000224,z,1,0.14689490001183003,None,,,,,458621,001,2024-10-17_19h19.47.043,sequencelearning,2024.2.1,59.98307275970216,2024-10-17 19h19.50.013424 +0530,
-50,x,116,0,29,x,1,0.33756010001525283,None,29,0,116,0,,,,,262.19477840000764,,262.17896789999213,262.19477840000764,263.1775217000395,263.1775217000395,263.1775217000395,263.1775217000395,263.1942871999927,264.1938779000193,264.1938779000193,264.54495700006373,x,1,0.33756010001525283,None,,,,,458621,001,2024-10-17_19h19.47.043,sequencelearning,2024.2.1,59.98307275970216,2024-10-17 19h19.50.013424 +0530,
150,v,117,1,29,v,1,0.21787170006427914,None,29,1,117,1,,,,,264.56052349996753,,264.5452499999665,264.56052349996753,265.56017599999905,265.56017599999905,265.56017599999905,265.56017599999905,265.56017599999905,266.55992220004555,266.55992220004555,266.7937910000328,v,1,0.21787170006427914,None,,,,,458621,001,2024-10-17_19h19.47.043,sequencelearning,2024.2.1,59.98307275970216,2024-10-17 19h19.50.013424 +0530,
50,c,118,2,29,c,1,0.160126099945046,None,29,2,118,2,,,,,266.80933309998363,,266.794065700029,266.80933309998363,267.8088690000586,267.8088690000586,267.8088690000586,267.8088690000586,267.8088690000586,268.8085853999946,268.8085853999946,268.97565060004126,c,1,0.160126099945046,None,,,,,458621,001,2024-10-17_19h19.47.043,sequencelearning,2024.2.1,59.98307275970216,2024-10-17 19h19.50.013424 +0530,
-150,z,119,3,29,z,1,0.18883260001894087,None,29,3,119,3,,,,,268.99167849996593,,268.9758868999779,268.99167849996593,269.9746163999662,269.9746163999662,269.9746163999662,269.9746163999662,269.99177059996873,270.99089320003986,270.99089320003986,271.1915768000763,z,1,0.18883260001894087,None,,,,,458621,001,2024-10-17_19h19.47.043,sequencelearning,2024.2.1,59.98307275970216,2024-10-17 19h19.50.013424 +0530,
-50,x,120,0,30,x,1,0.2212350000627339,None,30,0,120,0,,,,,271.20740860002115,,271.1918238999788,271.20740860002115,272.20691599999554,272.20691599999554,272.20691599999554,272.20691599999554,272.20691599999554,273.20659050007816,273.20659050007816,273.44096729997545,x,1,0.2212350000627339,None,,,,,458621,001,2024-10-17_19h19.47.043,sequencelearning,2024.2.1,59.98307275970216,2024-10-17 19h19.50.013424 +0530,
150,v,121,1,30,v,1,0.24595010001212358,None,30,1,121,1,,,,,273.45644590002485,,273.4412590999855,273.45644590002485,274.4562036000425,274.4562036000425,274.4562036000425,274.4562036000425,274.4562036000425,275.45566950005013,275.45566950005013,275.70630049996544,v,1,0.24595010001212358,None,,,,,458621,001,2024-10-17_19h19.47.043,sequencelearning,2024.2.1,59.98307275970216,2024-10-17 19h19.50.013424 +0530,
50,c,122,2,30,c,1,0.01382200000807643,None,30,2,122,2,,,,,275.722386599984,,275.7066351000685,275.722386599984,276.7219131999882,276.7219131999882,276.7219131999882,276.7219131999882,276.7219131999882,277.72136530000716,277.72136530000716,277.7390691000037,c,1,0.01382200000807643,None,,,,,458621,001,2024-10-17_19h19.47.043,sequencelearning,2024.2.1,59.98307275970216,2024-10-17 19h19.50.013424 +0530,
-150,z,123,3,30,z,1,0.2446741999592632,None,30,3,123,3,,,,,277.75505869998597,,277.7394175999798,277.75505869998597,278.7543500000611,278.7543500000611,278.7543500000611,278.7543500000611,278.7543500000611,279.7539037000388,279.7539037000388,280.0041782000335,z,1,0.2446741999592632,None,,,,,458621,001,2024-10-17_19h19.47.043,sequencelearning,2024.2.1,59.98307275970216,2024-10-17 19h19.50.013424 +0530,
-50,x,124,0,31,x,1,0.21450350002851337,None,31,0,124,0,,,,,280.02039610000793,,280.0044951000018,280.02039610000793,281.003147099982,281.003147099982,281.003147099982,281.003147099982,281.02000570006203,282.01961359998677,282.01961359998677,282.2366425000364,x,1,0.21450350002851337,None,,,,,458621,001,2024-10-17_19h19.47.043,sequencelearning,2024.2.1,59.98307275970216,2024-10-17 19h19.50.013424 +0530,
150,v,125,1,31,v,1,0.269988999934867,None,31,1,125,1,,,,,282.2529554000357,,282.23692719999235,282.2529554000357,283.2524278999772,283.2524278999772,283.2524278999772,283.2524278999772,283.2524278999772,284.25194600003306,284.25194600003306,284.53600780002307,v,1,0.269988999934867,None,,,,,458621,001,2024-10-17_19h19.47.043,sequencelearning,2024.2.1,59.98307275970216,2024-10-17 19h19.50.013424 +0530,
50,c,126,2,31,c,1,0.2247264999896288,None,31,2,126,2,,,,,284.55184339999687,,284.5363222999731,284.55184339999687,285.55137130001094,285.55137130001094,285.55137130001094,285.55137130001094,285.55137130001094,286.55091780005023,286.55091780005023,286.7849626999814,c,1,0.2247264999896288,None,,,,,458621,001,2024-10-17_19h19.47.043,sequencelearning,2024.2.1,59.98307275970216,2024-10-17 19h19.50.013424 +0530,
-150,z,127,3,31,z,1,0.25694520003162324,None,31,3,127,3,,,,,286.80080409999937,,286.7852518999716,286.80080409999937,287.80030250002164,287.80030250002164,287.80030250002164,287.80030250002164,287.80030250002164,288.7997583000688,288.7997583000688,289.0672709000064,z,1,0.25694520003162324,None,,,,,458621,001,2024-10-17_19h19.47.043,sequencelearning,2024.2.1,59.98307275970216,2024-10-17 19h19.50.013424 +0530,
-50,x,128,0,32,x,1,0.19255290005821735,None,32,0,128,0,,,,,289.0833150000544,,289.06761460006237,289.0833150000544,290.08280059997924,290.08280059997924,290.08280059997924,290.08280059997924,290.08280059997924,291.08239280001726,291.08239280001726,291.28294220007956,x,1,0.19255290005821735,None,,,,,458621,001,2024-10-17_19h19.47.043,sequencelearning,2024.2.1,59.98307275970216,2024-10-17 19h19.50.013424 +0530,
150,v,129,1,32,v,1,0.19998569996096194,None,32,1,129,1,,,,,291.29871490004007,,291.28320689999964,291.29871490004007,292.29840289999265,292.29840289999265,292.29840289999265,292.29840289999265,292.29840289999265,293.29861870000605,293.29861870000605,293.5154676999664,v,1,0.19998569996096194,None,,,,,458621,001,2024-10-17_19h19.47.043,sequencelearning,2024.2.1,59.98307275970216,2024-10-17 19h19.50.013424 +0530,
50,c,130,2,32,c,1,0.21145609999075532,None,32,2,130,2,,,,,293.53158960002474,,293.51571110007353,293.53158960002474,294.53068249998614,294.53068249998614,294.53068249998614,294.53068249998614,294.53068249998614,295.5304135000333,295.5304135000333,295.7476828000508,c,1,0.21145609999075532,None,,,,,458621,001,2024-10-17_19h19.47.043,sequencelearning,2024.2.1,59.98307275970216,2024-10-17 19h19.50.013424 +0530,
-150,z,131,3,32,z,1,0.20926669996697456,None,32,3,131,3,,,,,295.76434940006584,,295.747931699967,295.76434940006584,296.76321610005107,296.76321610005107,296.76321610005107,296.76321610005107,296.7799046,297.7627206000034,297.7627206000034,297.9799443000229,z,1,0.20926669996697456,None,,,,,458621,001,2024-10-17_19h19.47.043,sequencelearning,2024.2.1,59.98307275970216,2024-10-17 19h19.50.013424 +0530,
-50,x,132,0,33,x,1,0.19428509997669607,None,33,0,132,0,,,,,297.9960470000515,,297.9801885000197,297.9960470000515,298.99557080003433,298.99557080003433,298.99557080003433,298.99557080003433,298.99557080003433,299.9949964999687,299.9949964999687,300.19594370003324,x,1,0.19428509997669607,None,,,,,458621,001,2024-10-17_19h19.47.043,sequencelearning,2024.2.1,59.98307275970216,2024-10-17 19h19.50.013424 +0530,
150,v,133,1,33,v,1,None,None,33,1,133,1,,,,,300.2117049000226,,300.1963388000149,300.2117049000226,301.1946540999925,301.1946540999925,301.1946540999925,301.1946540999925,301.21122220007237,302.21084319998045,302.21084319998045,302.4281647000462,v,1,None,None,,,,,458621,001,2024-10-17_19h19.47.043,sequencelearning,2024.2.1,59.98307275970216,2024-10-17 19h19.50.013424 +0530,
50,c,134,2,33,c,1,0.23472649999894202,None,33,2,134,2,,,,,302.4441723000491,,302.4284808000084,302.4441723000491,303.4275114000775,303.4275114000775,303.4275114000775,303.4275114000775,303.4437012000708,304.44329460000154,304.44329460000154,304.6940610000165,c,1,0.23472649999894202,None,,,,,458621,001,2024-10-17_19h19.47.043,sequencelearning,2024.2.1,59.98307275970216,2024-10-17 19h19.50.013424 +0530,
-150,z,135,3,33,z,1,0.23638269992079586,None,33,3,135,3,,,,,304.7098403000273,,304.6943329999922,304.7098403000273,305.70939380000345,305.70939380000345,305.70939380000345,305.70939380000345,305.70939380000345,306.7090048000682,306.7090048000682,306.95957030006684,z,1,0.23638269992079586,None,,,,,458621,001,2024-10-17_19h19.47.043,sequencelearning,2024.2.1,59.98307275970216,2024-10-17 19h19.50.013424 +0530,
-50,x,136,0,34,x,1,0.2701215000124648,None,34,0,136,0,,,,,306.9754907999886,,306.9599230000749,306.9754907999886,307.9750417000614,307.9750417000614,307.9750417000614,307.9750417000614,307.9750417000614,308.9746623999672,308.9746623999672,309.2583338000113,x,1,0.2701215000124648,None,,,,,458621,001,2024-10-17_19h19.47.043,sequencelearning,2024.2.1,59.98307275970216,2024-10-17 19h19.50.013424 +0530,
150,v,137,1,34,v,1,0.22010190004948527,None,34,1,137,1,,,,,309.2744802000234,,309.2586430000374,309.2744802000234,310.25752310000826,310.25752310000826,310.25752310000826,310.25752310000826,310.27455329999793,311.25726360001136,311.25726360001136,311.49149729998317,v,1,0.22010190004948527,None,,,,,458621,001,2024-10-17_19h19.47.043,sequencelearning,2024.2.1,59.98307275970216,2024-10-17 19h19.50.013424 +0530,
50,c,138,2,34,c,1,0.28450149996206164,None,34,2,138,2,,,,,311.50762789999135,,311.49181400006637,311.50762789999135,312.50657119997777,312.50657119997777,312.50657119997777,312.50657119997777,312.52300939999986,313.50585070007946,313.50585070007946,313.80680530006066,c,1,0.28450149996206164,None,,,,,458621,001,2024-10-17_19h19.47.043,sequencelearning,2024.2.1,59.98307275970216,2024-10-17 19h19.50.013424 +0530,
-150,z,139,3,34,z,1,0.2337036000099033,None,34,3,139,3,,,,,313.8225289999973,,313.807047600043,313.8225289999973,314.8220605000388,314.8220605000388,314.8220605000388,314.8220605000388,314.8220605000388,315.82178760005627,315.82178760005627,316.07208850001916,z,1,0.2337036000099033,None,,,,,458621,001,2024-10-17_19h19.47.043,sequencelearning,2024.2.1,59.98307275970216,2024-10-17 19h19.50.013424 +0530,
-50,x,140,0,35,x,1,0.27030690002720803,None,35,0,140,0,,,,,316.088102000067,,316.0723455999978,316.088102000067,317.0715634999797,317.0715634999797,317.0715634999797,317.0715634999797,317.08770160004497,318.0875320000341,318.0875320000341,318.371209600009,x,1,0.27030690002720803,None,,,,,458621,001,2024-10-17_19h19.47.043,sequencelearning,2024.2.1,59.98307275970216,2024-10-17 19h19.50.013424 +0530,
150,v,141,1,35,v,1,0.32581449998542666,None,35,1,141,1,,,,,318.3871734000277,,318.37146150006447,318.3871734000277,319.3867522000801,319.3867522000801,319.3867522000801,319.3867522000801,319.3867522000801,320.3862785999663,320.3862785999663,320.72034620004706,v,1,0.32581449998542666,None,,,,,458621,001,2024-10-17_19h19.47.043,sequencelearning,2024.2.1,59.98307275970216,2024-10-17 19h19.50.013424 +0530,
50,c,142,2,35,c,1,0.21929079992696643,None,35,2,142,2,,,,,320.736291600042,,320.72064139996655,320.736291600042,321.73576399998274,321.73576399998274,321.73576399998274,321.73576399998274,321.73576399998274,322.7357245000312,322.7357245000312,322.9694429000374,c,1,0.21929079992696643,None,,,,,458621,001,2024-10-17_19h19.47.043,sequencelearning,2024.2.1,59.98307275970216,2024-10-17 19h19.50.013424 +0530,
-150,z,143,3,35,z,1,0.24493509996682405,None,35,3,143,3,,,,,322.985143900034,,322.96969529998023,322.985143900034,323.9848099000519,323.9848099000519,323.9848099000519,323.9848099000519,323.9848099000519,324.9844001000747,324.9844001000747,325.2356487000361,z,1,0.24493509996682405,None,,,,,458621,001,2024-10-17_19h19.47.043,sequencelearning,2024.2.1,59.98307275970216,2024-10-17 19h19.50.013424 +0530,
-50,x,144,0,36,x,1,0.22449360007885844,None,36,0,144,0,,,,,325.2508768000407,,325.23590960004367,325.2508768000407,326.25030840002,326.25030840002,326.25030840002,326.25030840002,326.25030840002,327.2500133999856,327.2500133999856,327.4841931000119,x,1,0.22449360007885844,None,,,,,458621,001,2024-10-17_19h19.47.043,sequencelearning,2024.2.1,59.98307275970216,2024-10-17 19h19.50.013424 +0530,
150,v,145,1,36,v,1,0.2152571000624448,None,36,1,145,1,,,,,327.4999996999977,,327.4845039000502,327.4999996999977,328.48290449997876,328.48290449997876,328.48290449997876,328.48290449997876,328.49963249999564,329.499162800028,329.499162800028,329.7162528000772,v,1,0.2152571000624448,None,,,,,458621,001,2024-10-17_19h19.47.043,sequencelearning,2024.2.1,59.98307275970216,2024-10-17 19h19.50.013424 +0530,
50,c,146,2,36,c,1,0.19444710004609078,None,36,2,146,2,,,,,329.73234600003343,,329.7165847000433,329.73234600003343,330.7155612000497,330.7155612000497,330.7155612000497,330.7155612000497,330.731946600019,331.7317084000679,331.7317084000679,331.9320658000652,c,1,0.19444710004609078,None,,,,,458621,001,2024-10-17_19h19.47.043,sequencelearning,2024.2.1,59.98307275970216,2024-10-17 19h19.50.013424 +0530,
-150,z,147,3,36,z,1,0.21733060001861304,None,36,3,147,3,,,,,331.94817420002073,,331.9323140999768,331.94817420002073,332.94767530006357,332.94767530006357,332.94767530006357,332.94767530006357,332.94767530006357,333.94715060002636,333.94715060002636,334.18119420006406,z,1,0.21733060001861304,None,,,,,458621,001,2024-10-17_19h19.47.043,sequencelearning,2024.2.1,59.98307275970216,2024-10-17 19h19.50.013424 +0530,
-50,x,148,0,37,x,1,0.20464969996828586,None,37,0,148,0,,,,,334.19716590002645,,334.1815176999662,334.19716590002645,335.19732220005244,335.19732220005244,335.19732220005244,335.19732220005244,335.19732220005244,336.1964004000183,336.1964004000183,336.4136250000447,x,1,0.20464969996828586,None,,,,,458621,001,2024-10-17_19h19.47.043,sequencelearning,2024.2.1,59.98307275970216,2024-10-17 19h19.50.013424 +0530,
150,v,149,1,37,v,1,0.25047600001562387,None,37,1,149,1,,,,,336.42954579996876,,336.41394540003967,336.42954579996876,337.42914640007075,337.42914640007075,337.42914640007075,337.42914640007075,337.42914640007075,338.4287652000785,338.4287652000785,338.6960330000147,v,1,0.25047600001562387,None,,,,,458621,001,2024-10-17_19h19.47.043,sequencelearning,2024.2.1,59.98307275970216,2024-10-17 19h19.50.013424 +0530,
50,c,150,2,37,c,1,0.2052467999747023,None,37,2,150,2,,,,,338.7117382000433,,338.6962815000443,338.7117382000433,339.7114780000411,339.7114780000411,339.7114780000411,339.7114780000411,339.7114780000411,340.7109404000221,340.7109404000221,340.92833170003723,c,1,0.2052467999747023,None,,,,,458621,001,2024-10-17_19h19.47.043,sequencelearning,2024.2.1,59.98307275970216,2024-10-17 19h19.50.013424 +0530,
-150,z,151,3,37,z,1,0.23365810001268983,None,37,3,151,3,,,,,340.9443110000575,,340.928596700076,340.9443110000575,341.94371450005565,341.94371450005565,341.94371450005565,341.94371450005565,341.94371450005565,342.9434896999737,342.9434896999737,343.1940697999671,z,1,0.23365810001268983,None,,,,,458621,001,2024-10-17_19h19.47.043,sequencelearning,2024.2.1,59.98307275970216,2024-10-17 19h19.50.013424 +0530,
-50,x,152,0,38,x,1,0.20544179994612932,None,38,0,152,0,,,,,343.209794400027,,343.1943366000196,343.209794400027,344.2103024000535,344.2103024000535,344.2103024000535,344.2103024000535,344.2103024000535,345.209479900077,345.209479900077,345.4265393000096,x,1,0.20544179994612932,None,,,,,458621,001,2024-10-17_19h19.47.043,sequencelearning,2024.2.1,59.98307275970216,2024-10-17 19h19.50.013424 +0530,
150,v,153,1,38,v,1,0.21503359999042004,None,38,1,153,1,,,,,345.44231329998,,345.4268441000022,345.44231329998,346.42505249998067,346.42505249998067,346.42505249998067,346.42505249998067,346.44176549999975,347.4413318000734,347.4413318000734,347.6585768000223,v,1,0.21503359999042004,None,,,,,458621,001,2024-10-17_19h19.47.043,sequencelearning,2024.2.1,59.98307275970216,2024-10-17 19h19.50.013424 +0530,
50,c,154,2,38,c,1,0.22187849995680153,None,38,2,154,2,,,,,347.67453920003027,,347.65884619997814,347.67453920003027,348.674143500044,348.674143500044,348.674143500044,348.674143500044,348.674143500044,349.6737614000449,349.6737614000449,349.90820269996766,c,1,0.22187849995680153,None,,,,,458621,001,2024-10-17_19h19.47.043,sequencelearning,2024.2.1,59.98307275970216,2024-10-17 19h19.50.013424 +0530,
-150,z,155,3,38,z,1,0.3114831999409944,None,38,3,155,3,,,,,349.9236390000442,,349.90848350001033,349.9236390000442,350.9233443000121,350.9233443000121,350.9233443000121,350.9233443000121,350.9233443000121,351.9229603999993,351.9229603999993,352.2398514000233,z,1,0.3114831999409944,None,,,,,458621,001,2024-10-17_19h19.47.043,sequencelearning,2024.2.1,59.98307275970216,2024-10-17 19h19.50.013424 +0530,
-50,x,156,0,39,x,1,0.22308799996972084,None,39,0,156,0,,,,,352.2560217999853,,352.24017450003885,352.2560217999853,353.2390851000091,353.2390851000091,353.2390851000091,353.2390851000091,353.25604010000825,354.25517030002084,354.25517030002084,354.48890280001797,x,1,0.22308799996972084,None,,,,,458621,001,2024-10-17_19h19.47.043,sequencelearning,2024.2.1,59.98307275970216,2024-10-17 19h19.50.013424 +0530,
150,v,157,1,39,v,1,0.20233499992173165,None,39,1,157,1,,,,,354.50490579998586,,354.48915200005285,354.50490579998586,355.4879384000087,355.4879384000087,355.4879384000087,355.4879384000087,355.5044400000479,356.48793569998816,356.48793569998816,356.7051361000631,v,1,0.20233499992173165,None,,,,,458621,001,2024-10-17_19h19.47.043,sequencelearning,2024.2.1,59.98307275970216,2024-10-17 19h19.50.013424 +0530,
50,c,158,2,39,c,1,0.296524400007911,None,39,2,158,2,,,,,356.72079529997427,,356.70546510000713,356.72079529997427,357.72047379997093,357.72047379997093,357.72047379997093,357.72047379997093,357.72047379997093,358.7199616000289,358.7199616000289,359.02040280005895,c,1,0.296524400007911,None,,,,,458621,001,2024-10-17_19h19.47.043,sequencelearning,2024.2.1,59.98307275970216,2024-10-17 19h19.50.013424 +0530,
-150,z,159,3,39,z,1,0.2425478999502957,None,39,3,159,3,,,,,359.0364882000722,,359.020655100001,359.0364882000722,360.036156999995,360.036156999995,360.036156999995,360.036156999995,360.036156999995,361.03562680003233,361.03562680003233,361.28635020006914,z,1,0.2425478999502957,None,,,,,458621,001,2024-10-17_19h19.47.043,sequencelearning,2024.2.1,59.98307275970216,2024-10-17 19h19.50.013424 +0530,
-50,x,160,0,40,x,1,0.28442180005367845,None,40,0,160,0,,,,,361.3021805000026,,361.28662390005775,361.3021805000026,362.3016524000559,362.3016524000559,362.3016524000559,362.3016524000559,362.3016524000559,363.30117210000753,363.30117210000753,363.6016800000798,x,1,0.28442180005367845,None,,,,,458621,001,2024-10-17_19h19.47.043,sequencelearning,2024.2.1,59.98307275970216,2024-10-17 19h19.50.013424 +0530,
150,v,161,1,40,v,1,0.23242929996922612,None,40,1,161,1,,,,,363.61792970006354,,363.6020580000477,363.61792970006354,364.6006311000092,364.6006311000092,364.6006311000092,364.6006311000092,364.61783190001734,365.6169864999829,365.6169864999829,365.85114430007525,v,1,0.23242929996922612,None,,,,,458621,001,2024-10-17_19h19.47.043,sequencelearning,2024.2.1,59.98307275970216,2024-10-17 19h19.50.013424 +0530,
50,c,162,2,40,c,1,0.19340830005239695,None,40,2,162,2,,,,,365.8667381000705,,365.85139419999905,365.8667381000705,366.8664152000565,366.8664152000565,366.8664152000565,366.8664152000565,366.8664152000565,367.86583809996955,367.86583809996955,368.0665953999851,c,1,0.19340830005239695,None,,,,,458621,001,2024-10-17_19h19.47.043,sequencelearning,2024.2.1,59.98307275970216,2024-10-17 19h19.50.013424 +0530,
-150,z,163,3,40,z,1,0.272726200055331,None,40,3,163,3,,,,,368.08244510006625,,368.06690970005,368.08244510006625,369.08219260000624,369.08219260000624,369.08219260000624,369.08219260000624,369.08219260000624,370.0818221999798,370.0818221999798,370.3655192999868,z,1,0.272726200055331,None,,,,,458621,001,2024-10-17_19h19.47.043,sequencelearning,2024.2.1,59.98307275970216,2024-10-17 19h19.50.013424 +0530,
-50,x,164,0,41,x,1,0.22420689999125898,None,41,0,164,0,,,,,370.38161649997346,,370.36583420005627,370.38161649997346,371.3645193000557,371.3645193000557,371.3645193000557,371.3645193000557,371.38096300000325,372.3807599999709,372.3807599999709,372.6148253000574,x,1,0.22420689999125898,None,,,,,458621,001,2024-10-17_19h19.47.043,sequencelearning,2024.2.1,59.98307275970216,2024-10-17 19h19.50.013424 +0530,
150,v,165,1,41,v,1,0.36885589989833534,None,41,1,165,1,,,,,372.63048930000514,,372.61507130006794,372.63048930000514,373.6301378000062,373.6301378000062,373.6301378000062,373.6301378000062,373.6301378000062,374.629615199985,374.629615199985,375.01358020002954,v,1,0.36885589989833534,None,,,,,458621,001,2024-10-17_19h19.47.043,sequencelearning,2024.2.1,59.98307275970216,2024-10-17 19h19.50.013424 +0530,
50,c,166,2,41,c,1,0.2246620999649167,None,41,2,166,2,,,,,375.02954120002687,,375.0138224000111,375.02954120002687,376.0290824000258,376.0290824000258,376.0290824000258,376.0290824000258,376.0290824000258,377.0286126000574,377.0286126000574,377.2625779999653,c,1,0.2246620999649167,None,,,,,458621,001,2024-10-17_19h19.47.043,sequencelearning,2024.2.1,59.98307275970216,2024-10-17 19h19.50.013424 +0530,
-150,z,167,3,41,z,1,0.21435839997138828,None,41,3,167,3,,,,,377.279140300001,,377.2628939000424,377.279140300001,378.2615101999836,378.2615101999836,378.2615101999836,378.2615101999836,378.2780233999947,379.2785958000459,379.2785958000459,379.4949096000055,z,1,0.21435839997138828,None,,,,,458621,001,2024-10-17_19h19.47.043,sequencelearning,2024.2.1,59.98307275970216,2024-10-17 19h19.50.013424 +0530,
-50,x,168,0,42,x,1,0.19758339994587004,None,42,0,168,0,,,,,379.51146920002066,,379.4953015000792,379.51146920002066,380.4937706000637,380.4937706000637,380.4937706000637,380.4937706000637,380.5278597000288,381.5102456000168,381.5102456000168,381.71042949997354,x,1,0.19758339994587004,None,,,,,458621,001,2024-10-17_19h19.47.043,sequencelearning,2024.2.1,59.98307275970216,2024-10-17 19h19.50.013424 +0530,
150,v,169,1,42,v,1,0.21994939993601292,None,42,1,169,1,,,,,381.72658070002217,,381.71067349996883,381.72658070002217,382.709406799986,382.709406799986,382.709406799986,382.709406799986,382.7261754000792,383.725701999967,383.725701999967,383.95969370007515,v,1,0.21994939993601292,None,,,,,458621,001,2024-10-17_19h19.47.043,sequencelearning,2024.2.1,59.98307275970216,2024-10-17 19h19.50.013424 +0530,
50,c,170,2,42,c,1,0.20373760000802577,None,42,2,170,2,,,,,383.975686000078,,383.9600291000679,383.975686000078,384.97519190004095,384.97519190004095,384.97519190004095,384.97519190004095,384.97519190004095,385.9747983000707,385.9747983000707,386.19207750004716,c,1,0.20373760000802577,None,,,,,458621,001,2024-10-17_19h19.47.043,sequencelearning,2024.2.1,59.98307275970216,2024-10-17 19h19.50.013424 +0530,
-150,z,171,3,42,z,1,0.19997499999590218,None,42,3,171,3,,,,,386.20812029996887,,386.19235670007765,386.20812029996887,387.208178000059,387.208178000059,387.208178000059,387.208178000059,387.208178000059,388.2077588000102,388.2077588000102,388.4246331000468,z,1,0.19997499999590218,None,,,,,458621,001,2024-10-17_19h19.47.043,sequencelearning,2024.2.1,59.98307275970216,2024-10-17 19h19.50.013424 +0530,
-50,x,172,0,43,x,1,0.19524100003764033,None,43,0,172,0,,,,,388.44064549996983,,388.4249546000501,388.44064549996983,389.44016480003484,389.44016480003484,389.44016480003484,389.44016480003484,389.44016480003484,390.43978959997185,390.43978959997185,390.6404696999816,x,1,0.19524100003764033,None,,,,,458621,001,2024-10-17_19h19.47.043,sequencelearning,2024.2.1,59.98307275970216,2024-10-17 19h19.50.013424 +0530,
150,v,173,1,43,v,1,0.24887969996780157,None,43,1,173,1,,,,,390.65619969996624,,390.64070950006135,390.65619969996624,391.65568169998005,391.65568169998005,391.65568169998005,391.65568169998005,391.65568169998005,392.6552270000102,392.6552270000102,392.9060086000245,v,1,0.24887969996780157,None,,,,,458621,001,2024-10-17_19h19.47.043,sequencelearning,2024.2.1,59.98307275970216,2024-10-17 19h19.50.013424 +0530,
50,c,174,2,43,c,1,0.20113120006863028,None,43,2,174,2,,,,,392.92186690005474,,392.9062508000061,392.92186690005474,393.92136829998344,393.92136829998344,393.92136829998344,393.92136829998344,393.92136829998344,394.92106690001674,394.92106690001674,395.13832330005243,c,1,0.20113120006863028,None,,,,,458621,001,2024-10-17_19h19.47.043,sequencelearning,2024.2.1,59.98307275970216,2024-10-17 19h19.50.013424 +0530,
-150,z,175,3,43,z,1,0.2309669000096619,None,43,3,175,3,,,,,395.1542758999858,,395.1385829000501,395.1542758999858,396.1378760000225,396.1378760000225,396.1378760000225,396.1378760000225,396.1537160000298,397.1532433000393,397.1532433000393,397.3870149999857,z,1,0.2309669000096619,None,,,,,458621,001,2024-10-17_19h19.47.043,sequencelearning,2024.2.1,59.98307275970216,2024-10-17 19h19.50.013424 +0530,
-50,x,176,0,44,x,1,0.23734949994832277,None,44,0,176,0,,,,,397.40340750000905,,397.3873209999874,397.40340750000905,398.3862253000261,398.3862253000261,398.3862253000261,398.3862253000261,398.40295829996467,399.4030620000558,399.4030620000558,399.6528241999913,x,1,0.23734949994832277,None,,,,,458621,001,2024-10-17_19h19.47.043,sequencelearning,2024.2.1,59.98307275970216,2024-10-17 19h19.50.013424 +0530,
150,v,177,1,44,v,1,0.20757910003885627,None,44,1,177,1,,,,,399.66902859997936,,399.6531091000652,399.66902859997936,400.65191030001733,400.65191030001733,400.65191030001733,400.65191030001733,400.6685747000156,401.6686120000668,401.6686120000668,401.885317999986,v,1,0.20757910003885627,None,,,,,458621,001,2024-10-17_19h19.47.043,sequencelearning,2024.2.1,59.98307275970216,2024-10-17 19h19.50.013424 +0530,
50,c,178,2,44,c,1,0.5792600000277162,None,44,2,178,2,,,,,401.90138070005924,,401.8856090999907,401.90138070005924,402.8842355000088,402.8842355000088,402.8842355000088,402.8842355000088,402.90100309997797,403.90067490004003,403.90067490004003,404.4842504999833,c,1,0.5792600000277162,None,,,,,458621,001,2024-10-17_19h19.47.043,sequencelearning,2024.2.1,59.98307275970216,2024-10-17 19h19.50.013424 +0530,
-150,z,179,3,44,z,1,0.6205731000518426,None,44,3,179,3,,,,,404.5004308000207,,404.48459820006974,404.5004308000207,405.48311100003775,405.48311100003775,405.48311100003775,405.48311100003775,405.49974740005564,406.4994791999925,406.4994791999925,407.13308319996577,z,1,0.6205731000518426,None,,,,,458621,001,2024-10-17_19h19.47.043,sequencelearning,2024.2.1,59.98307275970216,2024-10-17 19h19.50.013424 +0530,
-50,x,180,0,45,c,0,0.39802680001594126,None,45,0,180,0,,,,,407.1491255000001,,407.13333290000446,407.1491255000001,408.1485554999672,408.1485554999672,408.1485554999672,408.1485554999672,408.1485554999672,409.14815430005547,409.14815430005547,409.54841380007565,c,0,0.39802680001594126,None,,,,,458621,001,2024-10-17_19h19.47.043,sequencelearning,2024.2.1,59.98307275970216,2024-10-17 19h19.50.013424 +0530,
150,v,181,1,45,v,1,0.5663005999522284,None,45,1,181,1,,,,,409.5647316999966,,409.54873200005386,409.5647316999966,410.5476465000538,410.5476465000538,410.5476465000538,410.5476465000538,410.56492520007305,411.5645506000146,411.5645506000146,412.14754839998204,v,1,0.5663005999522284,None,,,,,458621,001,2024-10-17_19h19.47.043,sequencelearning,2024.2.1,59.98307275970216,2024-10-17 19h19.50.013424 +0530,
50,c,182,2,45,c,1,0.7785863999743015,None,45,2,182,2,,,,,412.16368019999936,,412.14786530006677,412.16368019999936,413.16331179998815,413.16331179998815,413.16331179998815,413.16331179998815,413.16331179998815,414.1627742999699,414.1627742999699,414.9465433000587,c,1,0.7785863999743015,None,,,,,458621,001,2024-10-17_19h19.47.043,sequencelearning,2024.2.1,59.98307275970216,2024-10-17 19h19.50.013424 +0530,
-150,z,183,3,45,z,1,0.32069229998160154,None,45,3,183,3,,,,,414.962366700056,,414.9468970000744,414.962366700056,415.96199610002805,415.96199610002805,415.96199610002805,415.96199610002805,415.96199610002805,416.9616064999718,416.9616064999718,417.29555380006786,z,1,0.32069229998160154,None,,,,,458621,001,2024-10-17_19h19.47.043,sequencelearning,2024.2.1,59.98307275970216,2024-10-17 19h19.50.013424 +0530,
-50,x,184,0,46,x,1,0.38471289991866797,None,46,0,184,0,,,,,417.3113641999662,,417.2958007999696,417.3113641999662,418.3109715000028,418.3109715000028,418.3109715000028,418.3109715000028,418.3109715000028,419.3105609000195,419.3105609000195,419.7118696999969,x,1,0.38471289991866797,None,,,,,458621,001,2024-10-17_19h19.47.043,sequencelearning,2024.2.1,59.98307275970216,2024-10-17 19h19.50.013424 +0530,
150,v,185,1,46,v,1,0.4526968999998644,None,46,1,185,1,,,,,419.72700790001545,,419.7121876999736,419.72700790001545,420.7266921000555,420.7266921000555,420.7266921000555,420.7266921000555,420.7266921000555,421.72684080002364,421.72684080002364,422.1934909999836,v,1,0.4526968999998644,None,,,,,458621,001,2024-10-17_19h19.47.043,sequencelearning,2024.2.1,59.98307275970216,2024-10-17 19h19.50.013424 +0530,
50,c,186,2,46,c,1,0.10060439992230386,None,46,2,186,2,,,,,422.2093834000407,,422.193875500001,422.2093834000407,423.20890850003343,423.20890850003343,423.20890850003343,423.20890850003343,423.20890850003343,424.20837959996425,424.20837959996425,424.310423500021,c,1,0.10060439992230386,None,,,,,458621,001,2024-10-17_19h19.47.043,sequencelearning,2024.2.1,59.98307275970216,2024-10-17 19h19.50.013424 +0530,
-150,z,187,3,46,z,1,0.47178789996542037,None,46,3,187,3,,,,,424.3250922000734,,424.31067789997905,424.3250922000734,425.32461010001134,425.32461010001134,425.32461010001134,425.32461010001134,425.32461010001134,426.32427630003076,426.32427630003076,426.8077669000486,z,1,0.47178789996542037,None,,,,,458621,001,2024-10-17_19h19.47.043,sequencelearning,2024.2.1,59.98307275970216,2024-10-17 19h19.50.013424 +0530,
-50,x,188,0,47,x,1,0.49896300002001226,None,47,0,188,0,,,,,426.8239301000722,,426.80809040006716,426.8239301000722,427.8067502999911,427.8067502999911,427.8067502999911,427.8067502999911,427.82351200003177,428.82320049998816,428.82320049998816,429.32413039996754,x,1,0.49896300002001226,None,,,,,458621,001,2024-10-17_19h19.47.043,sequencelearning,2024.2.1,59.98307275970216,2024-10-17 19h19.50.013424 +0530,
150,v,189,1,47,v,1,0.328001799993217,None,47,1,189,1,,,,,429.33951499999966,,429.32436660001986,429.33951499999966,430.33895800006576,430.33895800006576,430.33895800006576,430.33895800006576,430.33895800006576,431.3386042000493,431.3386042000493,431.6726092000026,v,1,0.328001799993217,None,,,,,458621,001,2024-10-17_19h19.47.043,sequencelearning,2024.2.1,59.98307275970216,2024-10-17 19h19.50.013424 +0530,
50,c,190,2,47,c,1,0.4247654000064358,None,47,2,190,2,,,,,431.6887048999779,,431.67290999996476,431.6887048999779,432.6882371000247,432.6882371000247,432.6882371000247,432.6882371000247,432.6882371000247,433.68781809997745,433.68781809997745,434.1217039000476,c,1,0.4247654000064358,None,,,,,458621,001,2024-10-17_19h19.47.043,sequencelearning,2024.2.1,59.98307275970216,2024-10-17 19h19.50.013424 +0530,
-150,z,191,3,47,z,1,0.40948319993913174,None,47,3,191,3,,,,,434.13743240002077,,434.1219499000581,434.13743240002077,435.13696340005845,435.13696340005845,435.13696340005845,435.13696340005845,435.13696340005845,436.1372714000754,436.1372714000754,436.5537592000328,z,1,0.40948319993913174,None,,,,,458621,001,2024-10-17_19h19.47.043,sequencelearning,2024.2.1,59.98307275970216,2024-10-17 19h19.50.013424 +0530,
-50,x,192,0,48,x,1,0.24007129995152354,None,48,0,192,0,,,,,436.5696949000703,,436.554033900029,436.5696949000703,437.56934140005615,437.56934140005615,437.56934140005615,437.56934140005615,437.56934140005615,438.5687565000262,438.5687565000262,438.81963300006464,x,1,0.24007129995152354,None,,,,,458621,001,2024-10-17_19h19.47.043,sequencelearning,2024.2.1,59.98307275970216,2024-10-17 19h19.50.013424 +0530,
150,v,193,1,48,v,1,0.25529260002076626,None,48,1,193,1,,,,,438.835319200065,,438.8198730000295,438.835319200065,439.83499090000987,439.83499090000987,439.83499090000987,439.83499090000987,439.83499090000987,440.83452160004526,440.83452160004526,441.10204170004,v,1,0.25529260002076626,None,,,,,458621,001,2024-10-17_19h19.47.043,sequencelearning,2024.2.1,59.98307275970216,2024-10-17 19h19.50.013424 +0530,
50,c,194,2,48,c,1,0.21995810000225902,None,48,2,194,2,,,,,441.11781790002715,,441.10233000002336,441.11781790002715,442.1174116000766,442.1174116000766,442.1174116000766,442.1174116000766,442.1174116000766,443.1170970000094,443.1170970000094,443.3511190999998,c,1,0.21995810000225902,None,,,,,458621,001,2024-10-17_19h19.47.043,sequencelearning,2024.2.1,59.98307275970216,2024-10-17 19h19.50.013424 +0530,
-150,z,195,3,48,z,1,0.22744399996008724,None,48,3,195,3,,,,,443.36691550002433,,443.35135880007874,443.36691550002433,444.3664628000697,444.3664628000697,444.3664628000697,444.3664628000697,444.3664628000697,445.36598740005866,445.36598740005866,445.59977329999674,z,1,0.22744399996008724,None,,,,,458621,001,2024-10-17_19h19.47.043,sequencelearning,2024.2.1,59.98307275970216,2024-10-17 19h19.50.013424 +0530,
-50,x,196,0,49,x,1,0.3231642000610009,None,49,0,196,0,,,,,445.6163246000651,,445.6001185000641,445.6163246000651,446.6153074000031,446.6153074000031,446.6153074000031,446.6153074000031,446.6153074000031,447.5990352999652,447.5990352999652,447.9323516000295,x,1,0.3231642000610009,None,,,,,458621,001,2024-10-17_19h19.47.043,sequencelearning,2024.2.1,59.98307275970216,2024-10-17 19h19.50.013424 +0530,
150,v,197,1,49,v,1,0.247604800038971,None,49,1,197,1,,,,,447.94835860002786,,447.9327014000155,447.94835860002786,448.9479494000552,448.9479494000552,448.9479494000552,448.9479494000552,448.9479494000552,449.9473581999773,449.9473581999773,450.1978061000118,v,1,0.247604800038971,None,,,,,458621,001,2024-10-17_19h19.47.043,sequencelearning,2024.2.1,59.98307275970216,2024-10-17 19h19.50.013424 +0530,
50,c,198,2,49,c,1,0.4426240000175312,None,49,2,198,2,,,,,450.2138543999754,,450.198153299978,450.2138543999754,451.1968068999704,451.1968068999704,451.1968068999704,451.1968068999704,451.21364470000844,452.2133487999672,452.2133487999672,452.66368780005723,c,1,0.4426240000175312,None,,,,,458621,001,2024-10-17_19h19.47.043,sequencelearning,2024.2.1,59.98307275970216,2024-10-17 19h19.50.013424 +0530,
-150,z,199,3,49,z,1,0.4026247999863699,None,49,3,199,3,,,,,452.68019009998534,,452.66397310001776,452.68019009998534,453.67966480006,453.67966480006,453.67966480006,453.67966480006,453.69566610001493,454.6787221999839,454.6787221999839,455.0964601000305,z,1,0.4026247999863699,None,,,,,458621,001,2024-10-17_19h19.47.043,sequencelearning,2024.2.1,59.98307275970216,2024-10-17 19h19.50.013424 +0530,
-150,z,0,0,0,z,1,0.4536138999974355,None,,,,,0,0,0,3,455.1123992999783,,455.1007247000234,455.1123992999783,456.11182420002297,456.11182420002297,456.11182420002297,456.11182420002297,456.11182420002297,457.11096780002117,457.11096780002117,457.57864209997933,,,,,z,1,0.4536138999974355,None,458621,001,2024-10-17_19h19.47.043,sequencelearning,2024.2.1,59.98307275970216,2024-10-17 19h19.50.013424 +0530,
-50,x,1,1,0,x,1,0.37869949999731034,None,,,,,0,1,1,0,457.5940341000678,,457.57889020000584,457.5940341000678,458.5935448000673,458.5935448000673,458.5935448000673,458.5935448000673,458.5935448000673,459.59355920006055,459.59355920006055,459.9772111000493,,,,,x,1,0.37869949999731034,None,458621,001,2024-10-17_19h19.47.043,sequencelearning,2024.2.1,59.98307275970216,2024-10-17 19h19.50.013424 +0530,
-150,z,2,2,1,z,1,0.3991048999596387,None,,,,,1,2,2,3,459.9933067000238,,459.97746379999444,459.9933067000238,460.99278400000185,460.99278400000185,460.99278400000185,460.99278400000185,460.99278400000185,461.9920967000071,461.9920967000071,462.39293920004275,,,,,z,1,0.3991048999596387,None,458621,001,2024-10-17_19h19.47.043,sequencelearning,2024.2.1,59.98307275970216,2024-10-17 19h19.50.013424 +0530,
150,v,3,3,0,v,1,0.4004404000006616,None,,,,,0,3,3,1,462.40869900002144,,462.39325269998517,462.40869900002144,463.4083578999853,463.4083578999853,463.4083578999853,463.4083578999853,463.4083578999853,464.40825580002274,464.40825580002274,464.8250847000163,,,,,v,1,0.4004404000006616,None,458621,001,2024-10-17_19h19.47.043,sequencelearning,2024.2.1,59.98307275970216,2024-10-17 19h19.50.013424 +0530,
50,c,4,4,0,c,1,0.4171759000746533,None,,,,,0,4,4,2,464.8409376000054,,464.8253893000074,464.8409376000054,465.82382150006015,465.82382150006015,465.82382150006015,465.82382150006015,465.84058379998896,466.84011660004035,466.84011660004035,467.2741638000589,,,,,c,1,0.4171759000746533,None,458621,001,2024-10-17_19h19.47.043,sequencelearning,2024.2.1,59.98307275970216,2024-10-17 19h19.50.013424 +0530,
-50,x,5,5,1,x,1,0.4568557000020519,None,,,,,1,5,5,0,467.2899701000424,,467.2744070000481,467.2899701000424,468.2894364000531,468.2894364000531,468.2894364000531,468.2894364000531,468.2894364000531,469.28914520004764,469.28914520004764,469.75589679996483,,,,,x,1,0.4568557000020519,None,458621,001,2024-10-17_19h19.47.043,sequencelearning,2024.2.1,59.98307275970216,2024-10-17 19h19.50.013424 +0530,
50,c,6,6,1,c,1,0.4588622000301257,None,,,,,1,6,6,2,469.77215640002396,,469.75627580005676,469.77215640002396,470.7550058000488,470.7550058000488,470.7550058000488,470.7550058000488,470.77176270005293,471.7711983000627,471.7711983000627,472.23833940003533,,,,,c,1,0.4588622000301257,None,458621,001,2024-10-17_19h19.47.043,sequencelearning,2024.2.1,59.98307275970216,2024-10-17 19h19.50.013424 +0530,
-50,x,7,7,2,x,1,0.3523706999840215,None,,,,,2,7,7,0,472.25443570001516,,472.23860140005127,472.25443570001516,473.2538660999853,473.2538660999853,473.2538660999853,473.2538660999853,473.2538660999853,474.2535070000449,474.2535070000449,474.62047860003076,,,,,x,1,0.3523706999840215,None,458621,001,2024-10-17_19h19.47.043,sequencelearning,2024.2.1,59.98307275970216,2024-10-17 19h19.50.013424 +0530,
150,v,8,8,1,v,1,0.42339849995914847,None,,,,,1,8,8,1,474.63681980001274,,474.620824099984,474.63681980001274,475.62003830005415,475.62003830005415,475.62003830005415,475.62003830005415,475.63627150002867,476.63582139997743,476.63582139997743,477.069904300035,,,,,v,1,0.42339849995914847,None,458621,001,2024-10-17_19h19.47.043,sequencelearning,2024.2.1,59.98307275970216,2024-10-17 19h19.50.013424 +0530,
50,c,9,9,2,c,1,0.3527732000220567,None,,,,,2,9,9,2,477.08565230004024,,477.07015480007976,477.08565230004024,478.0853616000386,478.0853616000386,478.0853616000386,478.0853616000386,478.0853616000386,479.08479720004834,479.08479720004834,479.45190910005476,,,,,c,1,0.3527732000220567,None,458621,001,2024-10-17_19h19.47.043,sequencelearning,2024.2.1,59.98307275970216,2024-10-17 19h19.50.013424 +0530,
150,v,10,10,2,v,1,0.3605494999792427,None,,,,,2,10,10,1,479.46815900004003,,479.4522559000179,479.46815900004003,480.46749299997464,480.46749299997464,480.46749299997464,480.46749299997464,480.46749299997464,481.45049359998666,481.45049359998666,481.81765320000704,,,,,v,1,0.3605494999792427,None,458621,001,2024-10-17_19h19.47.043,sequencelearning,2024.2.1,59.98307275970216,2024-10-17 19h19.50.013424 +0530,
-150,z,11,11,2,z,1,0.3924193000420928,None,,,,,2,11,11,3,481.8338297000155,,481.81800510000903,481.8338297000155,482.83321890002117,482.83321890002117,482.83321890002117,482.83321890002117,482.83321890002117,483.83281380007975,483.83281380007975,484.23327419999987,,,,,z,1,0.3924193000420928,None,458621,001,2024-10-17_19h19.47.043,sequencelearning,2024.2.1,59.98307275970216,2024-10-17 19h19.50.013424 +0530,
-50,x,12,12,3,x,1,0.6589277000166476,None,,,,,3,12,12,0,484.249194300035,,484.23353430000134,484.249194300035,485.24878540006466,485.24878540006466,485.24878540006466,485.24878540006466,485.24878540006466,486.2483724000631,486.2483724000631,486.9153724000789,,,,,x,1,0.6589277000166476,None,458621,001,2024-10-17_19h19.47.043,sequencelearning,2024.2.1,59.98307275970216,2024-10-17 19h19.50.013424 +0530,
-50,x,13,13,4,x,1,0.47509820002596825,None,,,,,4,13,13,0,486.9314699000679,,486.91573560005054,486.9314699000679,487.9141067999881,487.9141067999881,487.9141067999881,487.9141067999881,487.9309309000382,488.9306825000094,488.9306825000094,489.41448999999557,,,,,x,1,0.47509820002596825,None,458621,001,2024-10-17_19h19.47.043,sequencelearning,2024.2.1,59.98307275970216,2024-10-17 19h19.50.013424 +0530,
-150,z,14,14,3,z,1,0.5364566999487579,None,,,,,3,14,14,3,489.43033130001277,,489.4147861000383,489.43033130001277,490.4299964000238,490.4299964000238,490.4299964000238,490.4299964000238,490.4299964000238,491.43001860007644,491.43001860007644,491.98026089998893,,,,,z,1,0.5364566999487579,None,458621,001,2024-10-17_19h19.47.043,sequencelearning,2024.2.1,59.98307275970216,2024-10-17 19h19.50.013424 +0530,
-150,z,15,15,4,z,1,0.4900906999828294,None,,,,,4,15,15,3,491.9960062999744,,491.98059900000226,491.9960062999744,492.99594200006686,492.99594200006686,492.99594200006686,492.99594200006686,492.99594200006686,493.995405600057,493.995405600057,494.49532240000553,,,,,z,1,0.4900906999828294,None,458621,001,2024-10-17_19h19.47.043,sequencelearning,2024.2.1,59.98307275970216,2024-10-17 19h19.50.013424 +0530,
150,v,16,16,3,v,1,0.6940565999830142,None,,,,,3,16,16,1,494.5114491999848,,494.4955780999735,494.5114491999848,495.4943763000192,495.4943763000192,495.4943763000192,495.4943763000192,495.51094920001924,496.51061930006836,496.51061930006836,497.21092370001134,,,,,v,1,0.6940565999830142,None,458621,001,2024-10-17_19h19.47.043,sequencelearning,2024.2.1,59.98307275970216,2024-10-17 19h19.50.013424 +0530,
-50,x,17,17,5,x,1,0.6532480999594554,None,,,,,5,17,17,0,497.22713290003594,,497.21123959997203,497.22713290003594,498.22666899999604,498.22666899999604,498.22666899999604,498.22666899999604,498.22666899999604,499.22622399998363,499.22622399998363,499.89331950002816,,,,,x,1,0.6532480999594554,None,458621,001,2024-10-17_19h19.47.043,sequencelearning,2024.2.1,59.98307275970216,2024-10-17 19h19.50.013424 +0530,
-50,x,18,18,6,x,1,0.42741949995979667,None,,,,,6,18,18,0,499.9093523999909,,499.8936299000634,499.9093523999909,500.9086538000265,500.9086538000265,500.9086538000265,500.9086538000265,500.9086538000265,501.9082106000278,501.9082106000278,502.3422605000669,,,,,x,1,0.42741949995979667,None,458621,001,2024-10-17_19h19.47.043,sequencelearning,2024.2.1,59.98307275970216,2024-10-17 19h19.50.013424 +0530,
-50,x,19,19,7,x,1,0.3177445000037551,None,,,,,7,19,19,0,502.35815029998776,,502.3425688999705,502.35815029998776,503.35786860005464,503.35786860005464,503.35786860005464,503.35786860005464,503.35786860005464,504.357377700042,504.357377700042,504.69107369997073,,,,,x,1,0.3177445000037551,None,458621,001,2024-10-17_19h19.47.043,sequencelearning,2024.2.1,59.98307275970216,2024-10-17 19h19.50.013424 +0530,
150,v,20,20,4,v,1,0.6743693000171334,None,,,,,4,20,20,1,504.7070631000679,,504.6913304000627,504.7070631000679,505.7069110000739,505.7069110000739,505.7069110000739,505.7069110000739,505.7069110000739,506.706228199997,506.706228199997,507.3903256000485,,,,,v,1,0.6743693000171334,None,458621,001,2024-10-17_19h19.47.043,sequencelearning,2024.2.1,59.98307275970216,2024-10-17 19h19.50.013424 +0530,
150,v,21,21,5,v,1,0.4398679999867454,None,,,,,5,21,21,1,507.4058099000249,,507.3905823000241,507.4058099000249,508.40602400002535,508.40602400002535,508.40602400002535,508.40602400002535,508.40602400002535,509.40504390001297,509.40504390001297,509.85543990007136,,,,,v,1,0.4398679999867454,None,458621,001,2024-10-17_19h19.47.043,sequencelearning,2024.2.1,59.98307275970216,2024-10-17 19h19.50.013424 +0530,
-150,z,22,22,5,z,1,0.6607928000157699,None,,,,,5,22,22,3,509.87158440006897,,509.85569039999973,509.87158440006897,510.87110810005106,510.87110810005106,510.87110810005106,510.87110810005106,510.87110810005106,511.87078420002945,511.87078420002945,512.5380616000621,,,,,z,1,0.6607928000157699,None,458621,001,2024-10-17_19h19.47.043,sequencelearning,2024.2.1,59.98307275970216,2024-10-17 19h19.50.013424 +0530,
-50,x,23,23,8,x,1,0.45715689996723086,None,,,,,8,23,23,0,512.5538887999719,,512.5383441000013,512.5538887999719,513.55333600007,513.55333600007,513.55333600007,513.55333600007,513.55333600007,514.5528603000566,514.5528603000566,515.0201260000467,,,,,x,1,0.45715689996723086,None,458621,001,2024-10-17_19h19.47.043,sequencelearning,2024.2.1,59.98307275970216,2024-10-17 19h19.50.013424 +0530,
-150,z,24,24,6,z,1,0.48929379996843636,None,,,,,6,24,24,3,515.035961800022,,515.0203741000732,515.035961800022,516.0354166000616,516.0354166000616,516.0354166000616,516.0354166000616,516.0354166000616,517.0350087999832,517.0350087999832,517.5355535000563,,,,,z,1,0.48929379996843636,None,458621,001,2024-10-17_19h19.47.043,sequencelearning,2024.2.1,59.98307275970216,2024-10-17 19h19.50.013424 +0530,
150,v,25,25,6,v,1,0.8137642000801861,None,,,,,6,25,25,1,517.5515332999639,,517.5359089999693,517.5515332999639,518.5511909000343,518.5511909000343,518.5511909000343,518.5511909000343,518.5511909000343,519.5509530999698,519.5509530999698,520.3679908000631,,,,,v,1,0.8137642000801861,None,458621,001,2024-10-17_19h19.47.043,sequencelearning,2024.2.1,59.98307275970216,2024-10-17 19h19.50.013424 +0530,
50,c,26,26,3,c,1,0.41118010005448014,None,,,,,3,26,26,2,520.3837885999819,,520.3683463999769,520.3837885999819,521.3831929999869,521.3831929999869,521.3831929999869,521.3831929999869,521.3831929999869,522.382937300019,522.382937300019,522.7997863000492,,,,,c,1,0.41118010005448014,None,458621,001,2024-10-17_19h19.47.043,sequencelearning,2024.2.1,59.98307275970216,2024-10-17 19h19.50.013424 +0530,
-50,x,27,27,9,x,1,0.6667447999352589,None,,,,,9,27,27,0,522.8160448999843,,522.800084699993,522.8160448999843,523.7989441000391,523.7989441000391,523.7989441000391,523.7989441000391,523.815629000077,524.8152230000123,524.8152230000123,525.4987971000373,,,,,x,1,0.6667447999352589,None,458621,001,2024-10-17_19h19.47.043,sequencelearning,2024.2.1,59.98307275970216,2024-10-17 19h19.50.013424 +0530,
-50,x,28,28,10,x,1,0.4797977999551222,None,,,,,10,28,28,0,525.5149774000747,,525.4992154000793,525.5149774000747,526.4976757999975,526.4976757999975,526.4976757999975,526.4976757999975,526.514493900002,527.5140237000305,527.5140237000305,527.9976434999844,,,,,x,1,0.4797977999551222,None,458621,001,2024-10-17_19h19.47.043,sequencelearning,2024.2.1,59.98307275970216,2024-10-17 19h19.50.013424 +0530,
-50,x,29,29,11,x,1,0.416558500030078,None,,,,,11,29,29,0,528.0140420000535,,527.9979557000333,528.0140420000535,529.0133871000726,529.0133871000726,529.0133871000726,529.0133871000726,529.0133871000726,530.0129485999933,530.0129485999933,530.4310585000785,,,,,x,1,0.416558500030078,None,458621,001,2024-10-17_19h19.47.043,sequencelearning,2024.2.1,59.98307275970216,2024-10-17 19h19.50.013424 +0530,
50,c,30,30,4,c,1,0.5819397999439389,None,,,,,4,30,30,2,530.4461392000085,,530.431334599969,530.4461392000085,531.445608900045,531.445608900045,531.445608900045,531.445608900045,531.445608900045,532.4453214000678,532.4453214000678,533.0292285999749,,,,,c,1,0.5819397999439389,None,458621,001,2024-10-17_19h19.47.043,sequencelearning,2024.2.1,59.98307275970216,2024-10-17 19h19.50.013424 +0530,
-150,z,31,31,7,z,1,0.5900081000290811,None,,,,,7,31,31,3,533.0449564000592,,533.0296014000196,533.0449564000592,534.0445086000254,534.0445086000254,534.0445086000254,534.0445086000254,534.0445086000254,535.0441354999784,535.0441354999784,535.6445433000335,,,,,z,1,0.5900081000290811,None,458621,001,2024-10-17_19h19.47.043,sequencelearning,2024.2.1,59.98307275970216,2024-10-17 19h19.50.013424 +0530,
-150,z,32,32,8,z,1,0.5041465000249445,None,,,,,8,32,32,3,535.66052210005,,535.6447994000046,535.66052210005,536.6598888000008,536.6598888000008,536.6598888000008,536.6598888000008,536.6598888000008,537.6596116999863,537.6596116999863,538.1769483999815,,,,,z,1,0.5041465000249445,None,458621,001,2024-10-17_19h19.47.043,sequencelearning,2024.2.1,59.98307275970216,2024-10-17 19h19.50.013424 +0530,
-50,x,33,33,12,x,1,0.516149599920027,None,,,,,12,33,33,0,538.1927036000416,,538.177194399992,538.1927036000416,539.1923109000782,539.1923109000782,539.1923109000782,539.1923109000782,539.1923109000782,540.1918348000618,540.1918348000618,540.7097155000083,,,,,x,1,0.516149599920027,None,458621,001,2024-10-17_19h19.47.043,sequencelearning,2024.2.1,59.98307275970216,2024-10-17 19h19.50.013424 +0530,
50,c,34,34,5,c,1,0.55247810005676,None,,,,,5,34,34,2,540.7249399999855,,540.7099722999847,540.7249399999855,541.7244851000141,541.7244851000141,541.7244851000141,541.7244851000141,541.7244851000141,542.7241224000463,542.7241224000463,543.2911678999662,,,,,c,1,0.55247810005676,None,458621,001,2024-10-17_19h19.47.043,sequencelearning,2024.2.1,59.98307275970216,2024-10-17 19h19.50.013424 +0530,
150,v,35,35,7,v,1,0.4369995999149978,None,,,,,7,35,35,1,543.3073106000666,,543.2914443999762,543.3073106000666,544.2900932000484,544.2900932000484,544.2900932000484,544.2900932000484,544.306858099997,545.3063185000792,545.3063185000792,545.7568709000479,,,,,v,1,0.4369995999149978,None,458621,001,2024-10-17_19h19.47.043,sequencelearning,2024.2.1,59.98307275970216,2024-10-17 19h19.50.013424 +0530,
50,c,36,36,6,c,1,0.49568719998933375,None,,,,,6,36,36,2,545.7728810000699,,545.757166699972,545.7728810000699,546.7723648999818,546.7723648999818,546.7723648999818,546.7723648999818,546.7723648999818,547.7719520999817,547.7719520999817,548.2725651999936,,,,,c,1,0.49568719998933375,None,458621,001,2024-10-17_19h19.47.043,sequencelearning,2024.2.1,59.98307275970216,2024-10-17 19h19.50.013424 +0530,
150,v,37,37,8,v,1,0.5734748999821022,None,,,,,8,37,37,1,548.288321100059,,548.2728128000163,548.288321100059,549.2717648000689,549.2717648000689,549.2717648000689,549.2717648000689,549.2882842000108,550.288237300003,550.288237300003,550.8713238000637,,,,,v,1,0.5734748999821022,None,458621,001,2024-10-17_19h19.47.043,sequencelearning,2024.2.1,59.98307275970216,2024-10-17 19h19.50.013424 +0530,
-50,x,38,38,13,x,1,0.6179383000126109,None,,,,,13,38,38,0,550.8873322000727,,550.8715913000051,550.8873322000727,551.8868459999794,551.8868459999794,551.8868459999794,551.8868459999794,551.8868459999794,552.886455000029,552.886455000029,553.5202803000575,,,,,x,1,0.6179383000126109,None,458621,001,2024-10-17_19h19.47.043,sequencelearning,2024.2.1,59.98307275970216,2024-10-17 19h19.50.013424 +0530,
-50,x,39,39,14,x,1,0.42525009997189045,None,,,,,14,39,39,0,553.5361978000728,,553.5206410000101,553.5361978000728,554.5356659999816,554.5356659999816,554.5356659999816,554.5356659999816,554.5356659999816,555.5355431999778,555.5355431999778,555.9692240000004,,,,,x,1,0.42525009997189045,None,458621,001,2024-10-17_19h19.47.043,sequencelearning,2024.2.1,59.98307275970216,2024-10-17 19h19.50.013424 +0530,
-150,z,40,40,9,z,1,0.6095360999461263,None,,,,,9,40,40,3,555.9851788000669,,555.9694673999911,555.9851788000669,556.9847400999861,556.9847400999861,556.9847400999861,556.9847400999861,556.9847400999861,557.9841610000003,557.9841610000003,558.6013844000408,,,,,z,1,0.6095360999461263,None,458621,001,2024-10-17_19h19.47.043,sequencelearning,2024.2.1,59.98307275970216,2024-10-17 19h19.50.013424 +0530,
150,v,41,41,9,v,1,0.7703998000361025,None,,,,,9,41,41,1,558.6172221000306,,558.6016332000727,558.6172221000306,559.616752800066,559.616752800066,559.616752800066,559.616752800066,559.616752800066,560.6163293999853,560.6163293999853,561.4006226999918,,,,,v,1,0.7703998000361025,None,458621,001,2024-10-17_19h19.47.043,sequencelearning,2024.2.1,59.98307275970216,2024-10-17 19h19.50.013424 +0530,
50,c,42,42,7,c,1,0.5089190000435337,None,,,,,7,42,42,2,561.4162357000168,,561.4008673999924,561.4162357000168,562.4158073000144,562.4158073000144,562.4158073000144,562.4158073000144,562.4158073000144,563.4155084000668,563.4155084000668,563.9325162000023,,,,,c,1,0.5089190000435337,None,458621,001,2024-10-17_19h19.47.043,sequencelearning,2024.2.1,59.98307275970216,2024-10-17 19h19.50.013424 +0530,
-50,x,43,43,15,x,1,0.5048777000047266,None,,,,,15,43,43,0,563.9482337000081,,563.9327610000037,563.9482337000081,564.9313588000368,564.9313588000368,564.9313588000368,564.9313588000368,564.9479324000422,565.9474193999777,565.9474193999777,566.4646202999866,,,,,x,1,0.5048777000047266,None,458621,001,2024-10-17_19h19.47.043,sequencelearning,2024.2.1,59.98307275970216,2024-10-17 19h19.50.013424 +0530,
-150,z,44,44,10,z,1,0.6432031000731513,None,,,,,10,44,44,3,566.4805982999969,,566.4649687000783,566.4805982999969,567.4635255000321,567.4635255000321,567.4635255000321,567.4635255000321,567.4800033000065,568.4795360000571,568.4795360000571,569.1302424999885,,,,,z,1,0.6432031000731513,None,458621,001,2024-10-17_19h19.47.043,sequencelearning,2024.2.1,59.98307275970216,2024-10-17 19h19.50.013424 +0530,
