staircase.thisTrialN,staircase.stepSize,staircase.intensity,thisRow.t,notes,trial.started,fixation.started,grating.started,key_resp.started,fixation.stopped,grating.stopped,trial.stopped,corrAns,tilt,key_resp,staircase.response,key_resp.rt,participant,session,date,expName,psychopyVersion,frameRate,expStart,
0,2,10.0,0.10322719998657703,,0.08525660028681159,0.10322719998657703,0.5022368999198079,0.5022368999198079,0.6187916002236307,0.8020005002617836,1.1406479002907872,left,-10.0,1,1,0.6230137003585696,820285,001,2024-11-04_06h07.16.257,cw_6sept,2024.2.1,59.46869479823103,2024-11-04 06h07.20.699345 +0530,
1,2,8.0,1.1524038999341428,,1.1409066002815962,1.1524038999341428,1.6521533001214266,1.6521533001214266,1.6521533001214266,1.9548873002640903,2.0856750002130866,right,8.0,1,1,0.42208460019901395,820285,001,2024-11-04_06h07.16.257,cw_6sept,2024.2.1,59.46869479823103,2024-11-04 06h07.20.699345 +0530,
2,2,6.0,2.1014020000584424,,2.0858765998855233,2.1014020000584424,2.602568699978292,2.602568699978292,2.602568699978292,2.9189901002682745,3.101762500125915,left,-6.0,1,1,0.48473899997770786,820285,001,2024-11-04_06h07.16.257,cw_6sept,2024.2.1,59.46869479823103,2024-11-04 06h07.20.699345 +0530,
3,2,4.0,3.117566500324756,,3.101934500038624,3.117566500324756,3.601489699911326,3.601489699911326,3.6169902002438903,3.918001600075513,4.085768599994481,right,4.0,1,1,0.4822360002435744,820285,001,2024-11-04_06h07.16.257,cw_6sept,2024.2.1,59.46869479823103,2024-11-04 06h07.20.699345 +0530,
4,2,2.0,4.100617399904877,,4.085951399989426,4.100617399904877,4.584773300215602,4.584773300215602,4.600446600001305,4.884995799977332,5.067849200218916,right,2.0,1,1,0.4684052998200059,820285,001,2024-11-04_06h07.16.257,cw_6sept,2024.2.1,59.46869479823103,2024-11-04 06h07.20.699345 +0530,
5,1,1.0,5.083269900176674,,5.068055100273341,5.083269900176674,5.568024800159037,5.568024800159037,5.583963800221682,5.884031699970365,6.185602500103414,left,-1.0,0,0,0.6048964997753501,820285,001,2024-11-04_06h07.16.257,cw_6sept,2024.2.1,59.46869479823103,2024-11-04 06h07.20.699345 +0530,
6,1,2.0,6.200115200132132,,6.185781900305301,6.200115200132132,6.699764899909496,6.699764899909496,6.715671600308269,6.9997387998737395,7.167808699887246,left,-2.0,1,1,0.4667174997739494,820285,001,2024-11-04_06h07.16.257,cw_6sept,2024.2.1,59.46869479823103,2024-11-04 06h07.20.699345 +0530,
7,1,2.0,7.1829798999242485,,7.167982600163668,7.1829798999242485,7.665987600106746,7.665987600106746,7.682034499943256,7.966091699898243,8.217399599961936,left,-2.0,1,1,0.549834200181067,820285,001,2024-11-04_06h07.16.257,cw_6sept,2024.2.1,59.46869479823103,2024-11-04 06h07.20.699345 +0530,
8,1,2.0,8.231998899951577,,8.217574700247496,8.231998899951577,8.733093299902976,8.733093299902976,8.733093299902976,9.049534699879587,9.215544400271028,left,-2.0,1,1,0.46765190036967397,820285,001,2024-11-04_06h07.16.257,cw_6sept,2024.2.1,59.46869479823103,2024-11-04 06h07.20.699345 +0530,
9,1,1.0,9.233247800264508,,9.215726600028574,9.233247800264508,9.714890300296247,9.714890300296247,9.747955900151283,10.014723599888384,10.467006700113416,left,-1.0,1,1,0.7421985003165901,820285,001,2024-11-04_06h07.16.257,cw_6sept,2024.2.1,59.46869479823103,2024-11-04 06h07.20.699345 +0530,
10,1,1.0,10.481585199944675,,10.46720500010997,10.481585199944675,10.980684200301766,10.980684200301766,10.980684200301766,11.280918800272048,11.565335500054061,left,-1.0,1,1,0.5777011001482606,820285,001,2024-11-04_06h07.16.257,cw_6sept,2024.2.1,59.46869479823103,2024-11-04 06h07.20.699345 +0530,
11,1,1.0,11.580448800232261,,11.565515300258994,11.580448800232261,12.080965400207788,12.080965400207788,12.080965400207788,12.381205799989402,12.630494700279087,left,-1.0,1,1,0.543132399674505,820285,001,2024-11-04_06h07.16.257,cw_6sept,2024.2.1,59.46869479823103,2024-11-04 06h07.20.699345 +0530,
12,1,1.0,12.646347499918193,,12.630691499914974,12.646347499918193,13.130300300195813,13.130300300195813,13.147579499986023,13.431613800115883,13.630524000152946,right,1.0,1,1,0.49828230030834675,820285,001,2024-11-04_06h07.16.257,cw_6sept,2024.2.1,59.46869479823103,2024-11-04 06h07.20.699345 +0530,
13,1,1.0,13.646395300049335,,13.630693400278687,13.646395300049335,14.145821399986744,14.145821399986744,14.145821399986744,14.446173999924213,14.73029450001195,left,-1.0,1,1,0.5726012997329235,820285,001,2024-11-04_06h07.16.257,cw_6sept,2024.2.1,59.46869479823103,2024-11-04 06h07.20.699345 +0530,
14,1,1.0,14.745742800179869,,14.730470899958163,14.745742800179869,15.23115130001679,15.23115130001679,15.246513099875301,15.54666869994253,15.747942599933594,left,-1.0,1,1,0.5060087000019848,820285,001,2024-11-04_06h07.16.257,cw_6sept,2024.2.1,59.46869479823103,2024-11-04 06h07.20.699345 +0530,
15,1,1.0,15.76247930014506,,15.74812539992854,15.76247930014506,16.26292059989646,16.26292059989646,16.26292059989646,16.56355779990554,16.91482920013368,left,-1.0,1,1,0.6504450999200344,820285,001,2024-11-04_06h07.16.257,cw_6sept,2024.2.1,59.46869479823103,2024-11-04 06h07.20.699345 +0530,
16,1,1.0,16.930018300190568,,16.915021700318903,16.930018300190568,17.427895000204444,17.427895000204444,17.44473520014435,17.727427400182933,17.878818199969828,left,-1.0,1,1,0.4492489998228848,820285,001,2024-11-04_06h07.16.257,cw_6sept,2024.2.1,59.46869479823103,2024-11-04 06h07.20.699345 +0530,
17,1,1.0,17.894551699981093,,17.87899099988863,17.894551699981093,18.394598700106144,18.394598700106144,18.394598700106144,18.709510600194335,18.844870400149375,left,-1.0,1,1,0.44583910005167127,820285,001,2024-11-04_06h07.16.257,cw_6sept,2024.2.1,59.46869479823103,2024-11-04 06h07.20.699345 +0530,
18,1,1.0,18.860044500324875,,18.845050000119954,18.860044500324875,19.343492799904197,19.343492799904197,19.360862200148404,19.64337809989229,19.7932664998807,left,-1.0,1,1,0.4439977998845279,820285,001,2024-11-04_06h07.16.257,cw_6sept,2024.2.1,59.46869479823103,2024-11-04 06h07.20.699345 +0530,
19,1,1.0,19.80952910007909,,19.79348240001127,19.80952910007909,20.29330789996311,20.29330789996311,20.310219699982554,20.59312350023538,20.87771870009601,right,1.0,1,1,0.5732519002631307,820285,001,2024-11-04_06h07.16.257,cw_6sept,2024.2.1,59.46869479823103,2024-11-04 06h07.20.699345 +0530,
20,1,1.0,20.893630099948496,,20.877935300115496,20.893630099948496,21.393910800106823,21.393910800106823,21.409717299975455,21.6927010002546,21.84328110003844,right,1.0,1,1,0.44105800008401275,820285,001,2024-11-04_06h07.16.257,cw_6sept,2024.2.1,59.46869479823103,2024-11-04 06h07.20.699345 +0530,
21,1,1.0,21.8591926000081,,21.843480499926955,21.8591926000081,22.343252600170672,22.343252600170672,22.35875750007108,22.65871150000021,22.793137300293893,right,1.0,1,1,0.4332480998709798,820285,001,2024-11-04_06h07.16.257,cw_6sept,2024.2.1,59.46869479823103,2024-11-04 06h07.20.699345 +0530,
22,1,1.0,22.80824750009924,,22.79337800014764,22.80824750009924,23.292116600088775,23.292116600088775,23.308639500290155,23.59203079994768,23.776017799973488,right,1.0,1,1,0.4715934996493161,820285,001,2024-11-04_06h07.16.257,cw_6sept,2024.2.1,59.46869479823103,2024-11-04 06h07.20.699345 +0530,
23,1,1.0,23.79203339992091,,23.776232700329274,23.79203339992091,24.29143840027973,24.29143840027973,24.29143840027973,24.590997999999672,24.892098700162023,left,-1.0,1,1,0.590972900390625,820285,001,2024-11-04_06h07.16.257,cw_6sept,2024.2.1,59.46869479823103,2024-11-04 06h07.20.699345 +0530,
24,1,1.0,24.907351300120354,,24.892301300074905,24.907351300120354,25.407248999923468,25.407248999923468,25.407248999923468,25.706959700211883,25.9418863998726,right,1.0,1,1,0.5221445001661777,820285,001,2024-11-04_06h07.16.257,cw_6sept,2024.2.1,59.46869479823103,2024-11-04 06h07.20.699345 +0530,
25,0.5,1.0,25.956655300222337,,25.94206380005926,25.956655300222337,26.456663500051945,26.456663500051945,26.456663500051945,26.7561197001487,27.044455900322646,left,-1.0,0,0,0.5709714000113308,820285,001,2024-11-04_06h07.16.257,cw_6sept,2024.2.1,59.46869479823103,2024-11-04 06h07.20.699345 +0530,
26,0.5,1.5,27.059503300115466,,27.044697100296617,27.059503300115466,27.556305200327188,27.556305200327188,27.57286430010572,27.855665100272745,28.12328110029921,left,-1.5,1,1,0.5520914001390338,820285,001,2024-11-04_06h07.16.257,cw_6sept,2024.2.1,59.46869479823103,2024-11-04 06h07.20.699345 +0530,
27,0.5,1.5,28.13944480009377,,28.12350849993527,28.13944480009377,28.63936940021813,28.63936940021813,28.63936940021813,28.9383140001446,29.239628800190985,right,1.5,1,1,0.5894677001051605,820285,001,2024-11-04_06h07.16.257,cw_6sept,2024.2.1,59.46869479823103,2024-11-04 06h07.20.699345 +0530,
28,0.5,1.5,29.256001600064337,,29.23980149999261,29.256001600064337,29.755410199984908,29.755410199984908,29.755410199984908,30.054985800292343,30.2393165002577,right,1.5,1,1,0.471879499964416,820285,001,2024-11-04_06h07.16.257,cw_6sept,2024.2.1,59.46869479823103,2024-11-04 06h07.20.699345 +0530,
29,0.5,1.0,30.255373400170356,,30.23949020029977,30.255373400170356,30.755751700140536,30.755751700140536,30.755751700140536,31.07132920017466,31.172176300082356,right,1.0,1,1,0.4148164000362158,820285,001,2024-11-04_06h07.16.257,cw_6sept,2024.2.1,59.46869479823103,2024-11-04 06h07.20.699345 +0530,
30,0.5,1.0,31.188532900065184,,31.172352800145745,31.188532900065184,31.67076240014285,31.67076240014285,31.703801600262523,31.97131650010124,32.221952700056136,left,-1.0,0,0,0.5394367999397218,820285,001,2024-11-04_06h07.16.257,cw_6sept,2024.2.1,59.46869479823103,2024-11-04 06h07.20.699345 +0530,
31,0.5,1.5,32.2371479999274,,32.22213280014694,32.2371479999274,32.73861260013655,32.73861260013655,32.73861260013655,33.053814799990505,33.38749770028517,left,-1.5,1,1,0.6341991000808775,820285,001,2024-11-04_06h07.16.257,cw_6sept,2024.2.1,59.46869479823103,2024-11-04 06h07.20.699345 +0530,
32,0.5,1.5,33.40363930026069,,33.387689100112766,33.40363930026069,33.88733440032229,33.88733440032229,33.90396249992773,34.186746099963784,34.45366139989346,left,-1.5,0,0,0.5553362001664937,820285,001,2024-11-04_06h07.16.257,cw_6sept,2024.2.1,59.46869479823103,2024-11-04 06h07.20.699345 +0530,
33,0.5,2.0,34.46951470011845,,34.45383850019425,34.46951470011845,34.969610000029206,34.969610000029206,34.969610000029206,35.26929990015924,35.45334460027516,right,2.0,1,1,0.46853499999269843,820285,001,2024-11-04_06h07.16.257,cw_6sept,2024.2.1,59.46869479823103,2024-11-04 06h07.20.699345 +0530,
34,0.5,2.0,35.46970089990646,,35.453517000190914,35.46970089990646,35.952350300271064,35.952350300271064,35.96931149996817,36.252161799930036,36.57028920017183,left,-2.0,1,1,0.6034900001250207,820285,001,2024-11-04_06h07.16.257,cw_6sept,2024.2.1,59.46869479823103,2024-11-04 06h07.20.699345 +0530,
35,0.5,2.0,36.58543850015849,,36.57052000006661,36.58543850015849,37.08634730009362,37.08634730009362,37.08634730009362,37.402025000192225,37.56960460031405,right,2.0,1,1,0.47482920018956065,820285,001,2024-11-04_06h07.16.257,cw_6sept,2024.2.1,59.46869479823103,2024-11-04 06h07.20.699345 +0530,
36,0.5,1.5,37.58541260007769,,37.56978560006246,37.58541260007769,38.08474690001458,38.08474690001458,38.08474690001458,38.38514479994774,38.58562979986891,left,-1.5,0,0,0.49254450015723705,820285,001,2024-11-04_06h07.16.257,cw_6sept,2024.2.1,59.46869479823103,2024-11-04 06h07.20.699345 +0530,
37,0.5,2.0,38.60148630011827,,38.58582179993391,38.60148630011827,39.10135450027883,39.10135450027883,39.10135450027883,39.40260630007833,39.53522439999506,right,2.0,1,1,0.43002159986644983,820285,001,2024-11-04_06h07.16.257,cw_6sept,2024.2.1,59.46869479823103,2024-11-04 06h07.20.699345 +0530,
38,0.5,2.0,39.55211069993675,,39.53539490001276,39.55211069993675,40.034674800001085,40.034674800001085,40.0507171000354,40.33381080022082,40.568501099944115,right,2.0,1,1,0.5303862998262048,820285,001,2024-11-04_06h07.16.257,cw_6sept,2024.2.1,59.46869479823103,2024-11-04 06h07.20.699345 +0530,
39,0.5,2.0,40.58452680008486,,40.56870820000768,40.58452680008486,41.08339070016518,41.08339070016518,41.08339070016518,41.38354970002547,41.53416020004079,right,2.0,1,1,0.439013599883765,820285,001,2024-11-04_06h07.16.257,cw_6sept,2024.2.1,59.46869479823103,2024-11-04 06h07.20.699345 +0530,
40,0.5,1.5,41.55024480028078,,41.53435860015452,41.55024480028078,42.0339577998966,42.0339577998966,42.05050260014832,42.333338300231844,42.684027099981904,left,-1.5,0,0,0.6482211998663843,820285,001,2024-11-04_06h07.16.257,cw_6sept,2024.2.1,59.46869479823103,2024-11-04 06h07.20.699345 +0530,
41,0.5,2.0,42.70014759991318,,42.68420109990984,42.70014759991318,43.1994868000038,43.1994868000038,43.1994868000038,43.49929070007056,44.016631400212646,left,-2.0,1,1,0.8085845001041889,820285,001,2024-11-04_06h07.16.257,cw_6sept,2024.2.1,59.46869479823103,2024-11-04 06h07.20.699345 +0530,
42,0.5,2.0,44.0322397002019,,44.01679980009794,44.0322397002019,44.53221599990502,44.53221599990502,44.53221599990502,44.83195490017533,45.1501309000887,left,-2.0,1,1,0.6143105998635292,820285,001,2024-11-04_06h07.16.257,cw_6sept,2024.2.1,59.46869479823103,2024-11-04 06h07.20.699345 +0530,
43,0.5,2.0,45.165441799908876,,45.15032120002434,45.165441799908876,45.665122400037944,45.665122400037944,45.665122400037944,45.965416400227696,46.3490112000145,left,-2.0,1,1,0.6704063001088798,820285,001,2024-11-04_06h07.16.257,cw_6sept,2024.2.1,59.46869479823103,2024-11-04 06h07.20.699345 +0530,
44,0.5,1.5,46.36484090005979,,46.349222499877214,46.36484090005979,46.86475080018863,46.86475080018863,46.86475080018863,47.16714380029589,47.33196499990299,left,-1.5,0,0,0.4644344998523593,820285,001,2024-11-04_06h07.16.257,cw_6sept,2024.2.1,59.46869479823103,2024-11-04 06h07.20.699345 +0530,
45,0.5,2.0,47.34770209994167,,47.33213930018246,47.34770209994167,47.847219000104815,47.847219000104815,47.847219000104815,48.14700679993257,48.447608900256455,left,-2.0,1,1,0.5950565999373794,820285,001,2024-11-04_06h07.16.257,cw_6sept,2024.2.1,59.46869479823103,2024-11-04 06h07.20.699345 +0530,
46,0.5,2.0,48.463661999907345,,48.44777880003676,48.463661999907345,48.947341800201684,48.947341800201684,48.96343640005216,49.24630440026522,49.481314999982715,left,-2.0,1,1,0.5247847000136971,820285,001,2024-11-04_06h07.16.257,cw_6sept,2024.2.1,59.46869479823103,2024-11-04 06h07.20.699345 +0530,
47,0.5,2.0,49.49682389991358,,49.48150540003553,49.49682389991358,49.99622550001368,49.99622550001368,49.99622550001368,50.29671490006149,50.4638935001567,right,2.0,1,1,0.45732839964330196,820285,001,2024-11-04_06h07.16.257,cw_6sept,2024.2.1,59.46869479823103,2024-11-04 06h07.20.699345 +0530,
48,0.5,1.5,50.47950130002573,,50.464144200086594,50.47950130002573,50.96322950022295,50.96322950022295,50.980240600183606,51.26306889997795,51.67967069987208,left,-1.5,0,0,0.7034249003045261,820285,001,2024-11-04_06h07.16.257,cw_6sept,2024.2.1,59.46869479823103,2024-11-04 06h07.20.699345 +0530,
49,0.5,2.0,51.695843500085175,,51.67985110031441,51.695843500085175,52.182581699918956,52.182581699918956,52.198685199953616,52.496850499883294,52.74634429998696,right,2.0,1,1,0.5503490003757179,820285,001,2024-11-04_06h07.16.257,cw_6sept,2024.2.1,59.46869479823103,2024-11-04 06h07.20.699345 +0530,
50,0.5,2.0,52.76189160021022,,52.74653490027413,52.76189160021022,53.24495809990913,53.24495809990913,53.261861300095916,53.546530600171536,53.79560100007802,left,-2.0,1,1,0.5463471002876759,820285,001,2024-11-04_06h07.16.257,cw_6sept,2024.2.1,59.46869479823103,2024-11-04 06h07.20.699345 +0530,
51,0.5,2.0,53.81247830018401,,53.79579759994522,53.81247830018401,54.31097589991987,54.31097589991987,54.31097589991987,54.61183190019801,54.84513280028477,right,2.0,1,1,0.5271143997088075,820285,001,2024-11-04_06h07.16.257,cw_6sept,2024.2.1,59.46869479823103,2024-11-04 06h07.20.699345 +0530,
52,0.5,1.5,54.861549200024456,,54.84531830018386,54.861549200024456,55.36152830021456,55.36152830021456,55.36152830021456,55.66161000030115,55.877819600049406,right,1.5,1,1,0.5035726996138692,820285,001,2024-11-04_06h07.16.257,cw_6sept,2024.2.1,59.46869479823103,2024-11-04 06h07.20.699345 +0530,
53,0.5,1.5,55.89408250013366,,55.87798919994384,55.89408250013366,56.37763989996165,56.37763989996165,56.393571299966425,56.67771319998428,56.861493499949574,right,1.5,1,1,0.4820596999488771,820285,001,2024-11-04_06h07.16.257,cw_6sept,2024.2.1,59.46869479823103,2024-11-04 06h07.20.699345 +0530,
54,0.5,1.5,56.877396900206804,,56.86168730026111,56.877396900206804,57.376742199994624,57.376742199994624,57.393469400238246,57.6763650001958,57.87729600025341,right,1.5,1,1,0.4911890998482704,820285,001,2024-11-04_06h07.16.257,cw_6sept,2024.2.1,59.46869479823103,2024-11-04 06h07.20.699345 +0530,
55,0.5,1.0,57.893208499997854,,57.87747889989987,57.893208499997854,58.39343240018934,58.39343240018934,58.39343240018934,58.69274750025943,58.894425600301474,left,-1.0,0,0,0.48501270031556487,820285,001,2024-11-04_06h07.16.257,cw_6sept,2024.2.1,59.46869479823103,2024-11-04 06h07.20.699345 +0530,
56,0.5,1.5,58.90929639991373,,58.89463680004701,58.90929639991373,59.41070879995823,59.41070879995823,59.41070879995823,59.72591480007395,59.97621260024607,left,-1.5,1,1,0.5631357999518514,820285,001,2024-11-04_06h07.16.257,cw_6sept,2024.2.1,59.46869479823103,2024-11-04 06h07.20.699345 +0530,
57,0.5,1.5,59.99247090006247,,59.97639989992604,59.99247090006247,60.47587400022894,60.47587400022894,60.493050100281835,60.77593060024083,60.97706090006977,right,1.5,0,0,0.4838423999026418,820285,001,2024-11-04_06h07.16.257,cw_6sept,2024.2.1,59.46869479823103,2024-11-04 06h07.20.699345 +0530,
58,0.5,2.0,60.99291400006041,,60.97733350005001,60.99291400006041,61.49198540020734,61.49198540020734,61.49198540020734,61.79188050003722,62.076094100251794,right,2.0,0,0,0.5762895997613668,820285,001,2024-11-04_06h07.16.257,cw_6sept,2024.2.1,59.46869479823103,2024-11-04 06h07.20.699345 +0530,
59,0.5,2.5,62.09171639988199,,62.076297000050545,62.09171639988199,62.590815499890596,62.590815499890596,62.590815499890596,62.89051289996132,63.00894659990445,left,-2.5,0,0,0.4167448999360204,820285,001,2024-11-04_06h07.16.257,cw_6sept,2024.2.1,59.46869479823103,2024-11-04 06h07.20.699345 +0530,
60,0.5,3.0,63.024220400024205,,63.009188800118864,63.024220400024205,63.525320100132376,63.525320100132376,63.525320100132376,63.84017390012741,64.12498919991776,right,3.0,0,0,0.5877352999523282,820285,001,2024-11-04_06h07.16.257,cw_6sept,2024.2.1,59.46869479823103,2024-11-04 06h07.20.699345 +0530,
61,0.5,3.5,64.14042710000649,,64.1251638000831,64.14042710000649,64.64072370016947,64.64072370016947,64.64072370016947,64.94023959990591,65.05766119994223,right,3.5,1,1,0.4155202000401914,820285,001,2024-11-04_06h07.16.257,cw_6sept,2024.2.1,59.46869479823103,2024-11-04 06h07.20.699345 +0530,
62,0.5,3.5,65.07346779992804,,65.05783799989149,65.07346779992804,65.57404350023717,65.57404350023717,65.57404350023717,65.87267250008881,66.05674700019881,left,-3.5,1,1,0.4769395003095269,820285,001,2024-11-04_06h07.16.257,cw_6sept,2024.2.1,59.46869479823103,2024-11-04 06h07.20.699345 +0530,
63,0.5,3.5,66.07322810031474,,66.0569147001952,66.07322810031474,66.55600719992071,66.55600719992071,66.57297650026157,66.85595500003546,67.05699429986998,left,-3.5,0,0,0.4837195002473891,820285,001,2024-11-04_06h07.16.257,cw_6sept,2024.2.1,59.46869479823103,2024-11-04 06h07.20.699345 +0530,
64,0.5,4.0,67.07302000001073,,67.05719130020589,67.07302000001073,67.57252590032294,67.57252590032294,67.57252590032294,67.87202470004559,68.05760869989172,right,4.0,1,1,0.48109190026298165,820285,001,2024-11-04_06h07.16.257,cw_6sept,2024.2.1,59.46869479823103,2024-11-04 06h07.20.699345 +0530,
65,0.5,4.0,68.07262880029157,,68.05778399994597,68.07262880029157,68.57198400003836,68.57198400003836,68.58969529997557,68.87240680027753,69.05580889992416,left,-4.0,1,1,0.47497030021622777,820285,001,2024-11-04_06h07.16.257,cw_6sept,2024.2.1,59.46869479823103,2024-11-04 06h07.20.699345 +0530,
66,0.5,4.0,69.07184279989451,,69.05599809996784,69.07184279989451,69.57176379999146,69.57176379999146,69.57176379999146,69.87216840032488,69.99008230026811,right,4.0,1,1,0.4092887002043426,820285,001,2024-11-04_06h07.16.257,cw_6sept,2024.2.1,59.46869479823103,2024-11-04 06h07.20.699345 +0530,
67,0.5,3.5,70.00518300011754,,69.99026399990544,70.00518300011754,70.50531279994175,70.50531279994175,70.50531279994175,70.8207475002855,70.95457410020754,right,3.5,1,1,0.4442888000048697,820285,001,2024-11-04_06h07.16.257,cw_6sept,2024.2.1,59.46869479823103,2024-11-04 06h07.20.699345 +0530,
68,0.5,3.5,70.97066080011427,,70.95482750004157,70.97066080011427,71.47056580008939,71.47056580008939,71.47056580008939,71.77020969986916,71.95512080006301,right,3.5,1,1,0.47583819972351193,820285,001,2024-11-04_06h07.16.257,cw_6sept,2024.2.1,59.46869479823103,2024-11-04 06h07.20.699345 +0530,
69,0.5,3.5,71.9701483999379,,71.9553328002803,71.9701483999379,72.45418390026316,72.45418390026316,72.47077800007537,72.75365910027176,72.92094510002062,right,3.5,1,1,0.45767090003937483,820285,001,2024-11-04_06h07.16.257,cw_6sept,2024.2.1,59.46869479823103,2024-11-04 06h07.20.699345 +0530,
70,0.5,3.0,72.93659349996597,,72.9211149001494,72.93659349996597,73.42010160023347,73.42010160023347,73.43641930026934,73.72036990011111,74.05363309988752,left,-3.0,1,1,0.6310777002945542,820285,001,2024-11-04_06h07.16.257,cw_6sept,2024.2.1,59.46869479823103,2024-11-04 06h07.20.699345 +0530,
71,0.5,3.0,74.06969420006499,,74.05383270001039,74.06969420006499,74.55354360025376,74.55354360025376,74.5703622000292,74.8529711002484,75.0713363001123,left,-3.0,1,1,0.5165056996047497,820285,001,2024-11-04_06h07.16.257,cw_6sept,2024.2.1,59.46869479823103,2024-11-04 06h07.20.699345 +0530,
72,0.5,3.0,75.08652130002156,,75.07151810033247,75.08652130002156,75.58540010033175,75.58540010033175,75.60268829995766,75.88492579990998,76.15304830018431,right,3.0,0,0,0.5586463999934494,820285,001,2024-11-04_06h07.16.257,cw_6sept,2024.2.1,59.46869479823103,2024-11-04 06h07.20.699345 +0530,
73,0.5,3.5,76.1684636999853,,76.15323700010777,76.1684636999853,76.66841759998351,76.66841759998351,76.66841759998351,76.96807580022141,77.23522259993479,left,-3.5,0,0,0.5497367000207305,820285,001,2024-11-04_06h07.16.257,cw_6sept,2024.2.1,59.46869479823103,2024-11-04 06h07.20.699345 +0530,
74,0.5,4.0,77.25138760032132,,77.23539829999208,77.25138760032132,77.73485080013052,77.73485080013052,77.75193489994854,78.03447999991477,78.26881449995562,right,4.0,1,1,0.5325617999769747,820285,001,2024-11-04_06h07.16.257,cw_6sept,2024.2.1,59.46869479823103,2024-11-04 06h07.20.699345 +0530,
75,0.5,4.0,78.28483870020136,,78.26900049997494,78.28483870020136,78.76777420006692,78.76777420006692,78.78483980009332,79.06701700016856,79.28529229993,right,4.0,1,1,0.49970419984310865,820285,001,2024-11-04_06h07.16.257,cw_6sept,2024.2.1,59.46869479823103,2024-11-04 06h07.20.699345 +0530,
76,0.5,4.0,79.30060600023717,,79.28546989988536,79.30060600023717,79.78478999994695,79.78478999994695,79.80053080013022,80.08317010011524,80.3337465999648,left,-4.0,1,1,0.5342791001312435,820285,001,2024-11-04_06h07.16.257,cw_6sept,2024.2.1,59.46869479823103,2024-11-04 06h07.20.699345 +0530,
77,0.5,3.5,80.34987060027197,,80.33396349987015,80.34987060027197,80.83288310002536,80.83288310002536,80.84985140012577,81.1328835003078,81.30158430011943,left,-3.5,1,1,0.46734820026904345,820285,001,2024-11-04_06h07.16.257,cw_6sept,2024.2.1,59.46869479823103,2024-11-04 06h07.20.699345 +0530,
78,0.5,3.5,81.31654669996351,,81.30176520021632,81.31654669996351,81.8001423003152,81.8001423003152,81.81663540005684,82.0990467001684,82.24994320003316,right,3.5,1,1,0.435704099945724,820285,001,2024-11-04_06h07.16.257,cw_6sept,2024.2.1,59.46869479823103,2024-11-04 06h07.20.699345 +0530,
79,0.5,3.5,82.26607319992036,,82.25011500017717,82.26607319992036,82.74943820014596,82.74943820014596,82.7655084002763,83.04865710018203,83.1497496003285,left,-3.5,0,0,0.3864446999505162,820285,001,2024-11-04_06h07.16.257,cw_6sept,2024.2.1,59.46869479823103,2024-11-04 06h07.20.699345 +0530,
80,0.5,4.0,83.16577630024403,,83.14992640027776,83.16577630024403,83.64890599995852,83.64890599995852,83.66731650009751,83.94838090008125,84.18275960022584,left,-4.0,1,1,0.5300483000464737,820285,001,2024-11-04_06h07.16.257,cw_6sept,2024.2.1,59.46869479823103,2024-11-04 06h07.20.699345 +0530,
81,0.5,4.0,84.19889840018004,,84.18295600032434,84.19889840018004,84.69795700022951,84.69795700022951,84.71486350009218,84.99776390008628,85.16553919995204,left,-4.0,1,1,0.46619509998708963,820285,001,2024-11-04_06h07.16.257,cw_6sept,2024.2.1,59.46869479823103,2024-11-04 06h07.20.699345 +0530,
82,0.5,4.0,85.18205420020968,,85.16573040001094,85.18205420020968,85.66473220009357,85.66473220009357,85.68205270031467,85.96425369987264,86.13243400026113,left,-4.0,1,1,0.45843249978497624,820285,001,2024-11-04_06h07.16.257,cw_6sept,2024.2.1,59.46869479823103,2024-11-04 06h07.20.699345 +0530,
83,0.5,3.5,86.14901470020413,,86.13264140021056,86.14901470020413,86.6481157001108,86.6481157001108,86.6481157001108,86.94728090008721,87.08151550032198,left,-3.5,1,1,0.4292035000398755,820285,001,2024-11-04_06h07.16.257,cw_6sept,2024.2.1,59.46869479823103,2024-11-04 06h07.20.699345 +0530,
84,0.5,3.5,87.09767700033262,,87.08168630022556,87.09767700033262,87.58127260021865,87.58127260021865,87.59822920011356,87.89686729991809,87.99834850011393,left,-3.5,1,1,0.40443750005215406,820285,001,2024-11-04_06h07.16.257,cw_6sept,2024.2.1,59.46869479823103,2024-11-04 06h07.20.699345 +0530,
85,0.5,3.5,88.01358970021829,,87.99852630030364,88.01358970021829,88.49739299993962,88.49739299993962,88.51357330009341,88.79776490014046,88.94694040017202,right,3.5,1,1,0.4430591999553144,820285,001,2024-11-04_06h07.16.257,cw_6sept,2024.2.1,59.46869479823103,2024-11-04 06h07.20.699345 +0530,
86,0.5,3.0,88.96299119992182,,88.94714169995859,88.96299119992182,89.44742069998756,89.44742069998756,89.46325240004808,89.76287640025839,89.91367419995368,left,-3.0,1,1,0.4507284997962415,820285,001,2024-11-04_06h07.16.257,cw_6sept,2024.2.1,59.46869479823103,2024-11-04 06h07.20.699345 +0530,
87,0.5,3.0,89.92931709997356,,89.913845800329,89.92931709997356,90.41338249994442,90.41338249994442,90.43046620022506,90.73037400003523,90.7968378001824,left,-3.0,0,0,0.37990809977054596,820285,001,2024-11-04_06h07.16.257,cw_6sept,2024.2.1,59.46869479823103,2024-11-04 06h07.20.699345 +0530,
88,0.5,3.5,90.8124740999192,,90.79704200010747,90.8124740999192,91.31175770005211,91.31175770005211,91.31175770005211,91.6121086999774,91.91267530014738,left,-3.5,0,0,0.5875016003847122,820285,001,2024-11-04_06h07.16.257,cw_6sept,2024.2.1,59.46869479823103,2024-11-04 06h07.20.699345 +0530,
89,0.5,4.0,91.92813710030168,,91.9128606999293,91.92813710030168,92.4119560001418,92.4119560001418,92.43193319998682,92.71153829991817,92.97870930004865,left,-4.0,1,1,0.5611942000687122,820285,001,2024-11-04_06h07.16.257,cw_6sept,2024.2.1,59.46869479823103,2024-11-04 06h07.20.699345 +0530,
90,0.5,4.0,92.99466500012204,,92.97888740012422,92.99466500012204,93.47837640019134,93.47837640019134,93.49415099993348,93.77759020030499,93.92826730012894,right,4.0,1,1,0.43682230031117797,820285,001,2024-11-04_06h07.16.257,cw_6sept,2024.2.1,59.46869479823103,2024-11-04 06h07.20.699345 +0530,
91,0.5,4.0,93.9439326999709,,93.92843860015273,93.9439326999709,94.42744030011818,94.42744030011818,94.44448939990252,94.72785239992663,94.89468350028619,right,4.0,1,1,0.4605903001502156,820285,001,2024-11-04_06h07.16.257,cw_6sept,2024.2.1,59.46869479823103,2024-11-04 06h07.20.699345 +0530,
92,0.5,3.5,94.9107260000892,,94.8948615998961,94.9107260000892,95.39453170029446,95.39453170029446,95.41035360004753,95.69458300014958,95.7943303999491,right,3.5,1,1,0.3930339002981782,820285,001,2024-11-04_06h07.16.257,cw_6sept,2024.2.1,59.46869479823103,2024-11-04 06h07.20.699345 +0530,
93,0.5,3.5,95.81009990023449,,95.7945038001053,95.81009990023449,96.29473270010203,96.29473270010203,96.31128080002964,96.61089240014553,96.74412039993331,right,3.5,1,1,0.4405828998424113,820285,001,2024-11-04_06h07.16.257,cw_6sept,2024.2.1,59.46869479823103,2024-11-04 06h07.20.699345 +0530,
94,0.5,3.5,96.75989530002698,,96.74429100006819,96.75989530002698,97.2601042999886,97.2601042999886,97.2601042999886,97.55932420026511,97.69336390029639,right,3.5,1,1,0.42795659974217415,820285,001,2024-11-04_06h07.16.257,cw_6sept,2024.2.1,59.46869479823103,2024-11-04 06h07.20.699345 +0530,
95,0.5,3.0,97.70957549987361,,97.69354039989412,97.70957549987361,98.1927879001014,98.1927879001014,98.20943729998544,98.49288879986852,98.60953869996592,right,3.0,1,1,0.4115206999704242,820285,001,2024-11-04_06h07.16.257,cw_6sept,2024.2.1,59.46869479823103,2024-11-04 06h07.20.699345 +0530,
96,0.5,3.0,98.6256182002835,,98.60970959998667,98.6256182002835,99.10977730015293,99.10977730015293,99.12636450026184,99.40953220007941,99.61069300025702,left,-3.0,1,1,0.4855814999900758,820285,001,2024-11-04_06h07.16.257,cw_6sept,2024.2.1,59.46869479823103,2024-11-04 06h07.20.699345 +0530,
97,0.5,3.0,99.6263597002253,,99.6108949999325,99.6263597002253,100.12499679997563,100.12499679997563,100.1423598001711,100.42439560033381,100.55847349995747,left,-3.0,1,1,0.4171593002974987,820285,001,2024-11-04_06h07.16.257,cw_6sept,2024.2.1,59.46869479823103,2024-11-04 06h07.20.699345 +0530,
98,0.5,2.5,100.57471329998225,,100.55867379996926,100.57471329998225,101.05772479996085,101.05772479996085,101.07469230005518,101.35764579987153,101.49178460007533,right,2.5,0,0,0.42798190005123615,820285,001,2024-11-04_06h07.16.257,cw_6sept,2024.2.1,59.46869479823103,2024-11-04 06h07.20.699345 +0530,
99,0.5,3.0,101.50783340027556,,101.49202049989253,101.50783340027556,101.99169859988615,101.99169859988615,102.00838869996369,102.29034519987181,102.64106009993702,right,3.0,0,0,0.6446408000774682,820285,001,2024-11-04_06h07.16.257,cw_6sept,2024.2.1,59.46869479823103,2024-11-04 06h07.20.699345 +0530,
