word,imagefile,category,thisN,thisTrialN,thisRepN,textbox.text,button.numClicks,button.timesOn,button.timesOff,trials.thisRepN,trials.thisTrialN,trials.thisN,trials.thisIndex,thisRow.t,notes,phase1.started,text_3.started,key_resp.started,phase1.stopped,key_resp.keys,key_resp.rt,key_resp.duration,trial.started,fixation.started,text.started,image.started,textbox.started,button.started,fixation.stopped,trial.stopped,trials.textbox.text,trials.button.numClicks,trials.button.timesOn,trials.button.timesOff,phase2.started,text_2.started,key_resp_2.started,phase2.stopped,key_resp_2.keys,key_resp_2.rt,key_resp_2.duration,recalltest.started,textbox_2.started,button_2.started,recalltest.stopped,textbox_2.text,button_2.numClicks,button_2.timesOn,button_2.timesOff,thankyou.started,text_4.started,text_4.stopped,thankyou.stopped,participant,age,date,expName,psychopyVersion,frameRate,expStart
,,,,,,,,,,,,,,,,0.0224862,0.0407052,0.0407052,2.1108278,space,2.0592586,None,,,,,,,,,,,,,,,,,,,,,,,,,,,,,,,,762,21,2024-11-25_06h35.29.477,imagecondition1,2024.2.1,60.63568022,2024-11-25 06h35.39.371011 +0530
garnishing,images/garnishing.jpg,verb,0,0,0, verb,1,[2.448237499978859],[2.448246599989943],0,0,0,21,2.1385709,,,,,,,,,2.1228381,2.1385709,3.1234598,3.1234598,3.1234598,3.1234598,3.1384037,5.5723415, verb,1,[2.448237499978859],[2.448246599989943],,,,,,,,,,,,,,,,,,,,762,21,2024-11-25_06h35.29.477,imagecondition1,2024.2.1,60.63568022,2024-11-25 06h35.39.371011 +0530
dish soap,images/dishsoap.jpg,noun,1,1,0,noun,1,[2.2661875000048894],[2.2661967999883927],0,1,1,9,5.6032371,,,,,,,,,5.5845774,5.6032371,6.6041381,6.6041381,6.6041381,6.6041381,6.6201492,8.8710754,noun,1,[2.2661875000048894],[2.2661967999883927],,,,,,,,,,,,,,,,,,,,762,21,2024-11-25_06h35.29.477,imagecondition1,2024.2.1,60.63568022,2024-11-25 06h35.39.371011 +0530
garbage bin,images/garbagebin.jpg,noun,2,2,0,noun,1,[2.549141299998155],[2.549150799983181],0,2,2,7,8.9024436,,,,,,,,,8.8807052,8.9024436,9.9026664,9.9026664,9.9026664,9.9026664,9.9188234,12.452514,noun,1,[2.549141299998155],[2.549150799983181],,,,,,,,,,,,,,,,,,,,762,21,2024-11-25_06h35.29.477,imagecondition1,2024.2.1,60.63568022,2024-11-25 06h35.39.371011 +0530
grating,images/grating.jpg,verb,3,3,0,verb,1,[2.332328199991025],[2.332335300015984],0,3,3,20,12.4681403,,,,,,,,,12.4574278,12.4681403,13.484525,13.484525,13.484525,13.484525,13.484525,15.8175437,verb,1,[2.332328199991025],[2.332335300015984],,,,,,,,,,,,,,,,,,,,762,21,2024-11-25_06h35.29.477,imagecondition1,2024.2.1,60.63568022,2024-11-25 06h35.39.371011 +0530
cooker,images/cooker.jpg,noun,4,4,0,noun,1,[2.6645916999841575],[2.6646031999844126],0,4,4,3,15.8493557,,,,,,,,,15.8372039,15.8493557,16.8343962,16.8343962,16.8343962,16.8343962,16.8504377,19.4996495,noun,1,[2.6645916999841575],[2.6646031999844126],,,,,,,,,,,,,,,,,,,,762,21,2024-11-25_06h35.29.477,imagecondition1,2024.2.1,60.63568022,2024-11-25 06h35.39.371011 +0530
fruit basket,images/fruitbasket.jpg,noun,5,5,0,noun,1,[2.9495260000112467],[2.949534500017762],0,5,5,11,19.5149242,,,,,,,,,19.5046155,19.5149242,20.5311831,20.5311831,20.5311831,20.5311831,20.5311831,23.4814687,noun,1,[2.9495260000112467],[2.949534500017762],,,,,,,,,,,,,,,,,,,,762,21,2024-11-25_06h35.29.477,imagecondition1,2024.2.1,60.63568022,2024-11-25 06h35.39.371011 +0530
chopping,images/chopping.jpg,verb,6,6,0,verb,1,[2.3492521999869496],[2.349259599985089],0,6,6,12,23.4966326,,,,,,,,,23.4859428,23.4966326,24.4964577,24.4964577,24.4964577,24.4964577,24.5128612,26.846363,verb,1,[2.3492521999869496],[2.349259599985089],,,,,,,,,,,,,,,,,,,,762,21,2024-11-25_06h35.29.477,imagecondition1,2024.2.1,60.63568022,2024-11-25 06h35.39.371011 +0530
frying,images/frying.jpg,verb,7,7,0,verb,1,[1.9646851000143215],[1.964694199996302],0,7,7,15,26.8616584,,,,,,,,,26.8521497,26.8616584,27.8795816,27.8795816,27.8795816,27.8795816,27.8795816,29.84497,verb,1,[1.9646851000143215],[1.964694199996302],,,,,,,,,,,,,,,,,,,,762,21,2024-11-25_06h35.29.477,imagecondition1,2024.2.1,60.63568022,2024-11-25 06h35.39.371011 +0530
knife,images/knife.jpg,noun,8,8,0,noun,1,[2.382560600002762],[2.3825693000108004],0,8,8,5,29.8604346,,,,,,,,,29.8494266,29.8604346,30.8766242,30.8766242,30.8766242,30.8766242,30.8766242,33.2599085,noun,1,[2.382560600002762],[2.3825693000108004],,,,,,,,,,,,,,,,,,,,762,21,2024-11-25_06h35.29.477,imagecondition1,2024.2.1,60.63568022,2024-11-25 06h35.39.371011 +0530
grinding,images/grinding.jpg,verb,9,9,0,verb,1,[2.399468199990224],[2.3994754999876022],0,9,9,23,33.2752748,,,,,,,,,33.2644054,33.2752748,34.2750289,34.2750289,34.2750289,34.2750289,34.2915981,36.6752353,verb,1,[2.399468199990224],[2.3994754999876022],,,,,,,,,,,,,,,,,,,,762,21,2024-11-25_06h35.29.477,imagecondition1,2024.2.1,60.63568022,2024-11-25 06h35.39.371011 +0530
microwave,images/microwave.jpg,noun,10,10,0,noun,1,[2.3660908000019845],[2.366098200000124],0,10,10,2,36.6912638,,,,,,,,,36.6797878,36.6912638,37.6904765,37.6904765,37.6904765,37.6904765,37.7070069,40.0571986,noun,1,[2.3660908000019845],[2.366098200000124],,,,,,,,,,,,,,,,,,,,762,21,2024-11-25_06h35.29.477,imagecondition1,2024.2.1,60.63568022,2024-11-25 06h35.39.371011 +0530
baking,images/baking.jpg,verb,11,11,0,verb,1,[2.116215399990324],[2.1162226000160445],0,11,11,16,40.072952,,,,,,,,,40.0631797,40.072952,41.0887113,41.0887113,41.0887113,41.0887113,41.0887113,43.2056909,verb,1,[2.116215399990324],[2.1162226000160445],,,,,,,,,,,,,,,,,,,,762,21,2024-11-25_06h35.29.477,imagecondition1,2024.2.1,60.63568022,2024-11-25 06h35.39.371011 +0530
refrigerator,images/refrigerator.jpg,noun,12,12,0,,1,[3.1002513999992516],[3.1002586999966297],0,12,12,1,43.8864176,,,,,,,,,43.8607314,43.8864176,44.2200921,44.2200921,44.2200921,44.2200921,,44.1897934,,1,[3.1002513999992516],[3.1002586999966297],,,,,,,,,,,,,,,,,,,,762,21,2024-11-25_06h35.29.477,imagecondition1,2024.2.1,60.63568022,2024-11-25 06h35.39.371011 +0530
jar,images/jar.jpg,noun,13,13,0,noun,1,[2.51530569998431],[2.5153165999799967],0,13,13,4,44.2200921,,,,,,,,,44.2088778,44.2200921,45.221234,45.221234,45.221234,45.221234,45.2376789,47.7373116,noun,1,[2.51530569998431],[2.5153165999799967],,,,,,,,,,,,,,,,,,,,762,21,2024-11-25_06h35.29.477,imagecondition1,2024.2.1,60.63568022,2024-11-25 06h35.39.371011 +0530
rolling pin,images/rollingpin.jpg,noun,14,14,0,noun,1,[2.298086599999806],[2.298094099998707],0,14,14,6,47.7529256,,,,,,,,,47.7427593,47.7529256,48.7534473,48.7534473,48.7534473,48.7534473,48.7534473,51.0522576,noun,1,[2.298086599999806],[2.298094099998707],,,,,,,,,,,,,,,,,,,,762,21,2024-11-25_06h35.29.477,imagecondition1,2024.2.1,60.63568022,2024-11-25 06h35.39.371011 +0530
mashing,images/mashing.jpg,verb,15,15,0,verb,1,[2.39956119999988],[2.3995720999955665],0,15,15,22,51.0675153,,,,,,,,,51.0567688,51.0675153,52.0674106,52.0674106,52.0674106,52.0674106,52.0842317,54.4677316,verb,1,[2.39956119999988],[2.3995720999955665],,,,,,,,,,,,,,,,,,,,762,21,2024-11-25_06h35.29.477,imagecondition1,2024.2.1,60.63568022,2024-11-25 06h35.39.371011 +0530
peeling,images/peeling.jpg,verb,16,16,0,verb,1,[1.9324808999954257],[1.932491999992635],0,16,16,19,54.4833165,,,,,,,,,54.4722671,54.4833165,55.4997132,55.4997132,55.4997132,55.4997132,55.4997132,57.4329729,verb,1,[1.9324808999954257],[1.932491999992635],,,,,,,,,,,,,,,,,,,,762,21,2024-11-25_06h35.29.477,imagecondition1,2024.2.1,60.63568022,2024-11-25 06h35.39.371011 +0530
grilling,images/grilling.jpg,verb,17,17,0,verb,1,[1.8659194000065327],[1.8659276000107639],0,17,17,17,57.4487836,,,,,,,,,57.437707,57.4487836,58.4652163,58.4652163,58.4652163,58.4652163,58.4652163,60.3318246,verb,1,[1.8659194000065327],[1.8659276000107639],,,,,,,,,,,,,,,,,,,,762,21,2024-11-25_06h35.29.477,imagecondition1,2024.2.1,60.63568022,2024-11-25 06h35.39.371011 +0530
blending,images/blending.jpg,verb,18,18,0,verb,1,[2.0823703999922145],[2.082380200008629],0,18,18,13,60.3462075,,,,,,,,,60.3412348,60.3462075,61.3643388,61.3643388,61.3643388,61.3643388,61.3643388,63.4473981,verb,1,[2.0823703999922145],[2.082380200008629],,,,,,,,,,,,,,,,,,,,762,21,2024-11-25_06h35.29.477,imagecondition1,2024.2.1,60.63568022,2024-11-25 06h35.39.371011 +0530
stove,images/stove.jpg,noun,19,19,0,noun,1,[2.5825759999861475],[2.582584499992663],0,19,19,0,63.4783546,,,,,,,,,63.4611061,63.4783546,64.4786529,64.4786529,64.4786529,64.4786529,64.4948967,67.0624189,noun,1,[2.5825759999861475],[2.582584499992663],,,,,,,,,,,,,,,,,,,,762,21,2024-11-25_06h35.29.477,imagecondition1,2024.2.1,60.63568022,2024-11-25 06h35.39.371011 +0530
ice tray,images/icetray.jpg,noun,20,20,0,noun,1,[2.2164098999928683],[2.216420799988555],0,20,20,10,67.0774431,,,,,,,,,67.0671541,67.0774431,68.0941049,68.0941049,68.0941049,68.0941049,68.0941049,70.3113338,noun,1,[2.2164098999928683],[2.216420799988555],,,,,,,,,,,,,,,,,,,,762,21,2024-11-25_06h35.29.477,imagecondition1,2024.2.1,60.63568022,2024-11-25 06h35.39.371011 +0530
boiling,images/boiling.jpg,verb,21,21,0,verb,1,[2.148893399978988],[2.1489032999961637],0,21,21,14,70.3264309,,,,,,,,,70.3160774,70.3264309,71.3430458,71.3430458,71.3430458,71.3430458,71.3430458,73.4927094,verb,1,[2.148893399978988],[2.1489032999961637],,,,,,,,,,,,,,,,,,,,762,21,2024-11-25_06h35.29.477,imagecondition1,2024.2.1,60.63568022,2024-11-25 06h35.39.371011 +0530
whisking,images/whisking.jpg,verb,22,22,0,verb,1,[3.8151808000111487],[3.815188600012334],0,22,22,18,73.5083185,,,,,,,,,73.4972607,73.5083185,74.4916514,74.4916514,74.4916514,74.4916514,74.5080647,78.3076379,verb,1,[3.8151808000111487],[3.815188600012334],,,,,,,,,,,,,,,,,,,,762,21,2024-11-25_06h35.29.477,imagecondition1,2024.2.1,60.63568022,2024-11-25 06h35.39.371011 +0530
bottle opener,images/bottleopener.jpg,noun,23,23,0,noun,1,[2.765762099996209],[2.765770700003486],0,23,23,8,78.3228391,,,,,,,,,78.3124417,78.3228391,79.3390817,79.3390817,79.3390817,79.3390817,79.3390817,82.1056673,noun,1,[2.765762099996209],[2.765770700003486],,,,,,,,,,,,,,,,,,,,762,21,2024-11-25_06h35.29.477,imagecondition1,2024.2.1,60.63568022,2024-11-25 06h35.39.371011 +0530
,,,,,,,,,,,,,,,,,,,,,,,,,,,,,,,,,,,82.1058873,82.1209027,82.1209027,84.4716516,space,2.3352792,None,,,,,,,,,,,,,762,21,2024-11-25_06h35.29.477,imagecondition1,2024.2.1,60.63568022,2024-11-25 06h35.39.371011 +0530
,,,,,,,,,,,,,,,,,,,,,,,,,,,,,,,,,,,,,,,,,,84.4732385,84.4865455,84.4865455,170.2838171," bottle opener, cooker, grinding, grating, peeling, boiling, chopping, fruit basket, garbage bin, rolling pin, mashing, stove, refrigerator, whisking, baking, frying, knife, blender",1,[85.79637329999241],[85.79638149999664],,,,,762,21,2024-11-25_06h35.29.477,imagecondition1,2024.2.1,60.63568022,2024-11-25 06h35.39.371011 +0530
,,,,,,,,,,,,,,,,,,,,,,,,,,,,,,,,,,,,,,,,,,,,,,,,,,170.2839324,170.2988962,173.2976792,173.2822326,762,21,2024-11-25_06h35.29.477,imagecondition1,2024.2.1,60.63568022,2024-11-25 06h35.39.371011 +0530
