word,imagefile,category,thisN,thisTrialN,thisRepN,textbox.text,button.numClicks,button.timesOn,button.timesOff,trials.thisRepN,trials.thisTrialN,trials.thisN,trials.thisIndex,thisRow.t,notes,phase1.started,text_3.started,key_resp.started,phase1.stopped,key_resp.keys,key_resp.rt,key_resp.duration,trial.started,fixation.started,text.started,image.started,textbox.started,button.started,fixation.stopped,trial.stopped,trials.textbox.text,trials.button.numClicks,trials.button.timesOn,trials.button.timesOff,phase2.started,text_2.started,key_resp_2.started,phase2.stopped,key_resp_2.keys,key_resp_2.rt,key_resp_2.duration,recalltest.started,textbox_2.started,button_2.started,recalltest.stopped,textbox_2.text,button_2.numClicks,button_2.timesOn,button_2.timesOff,thankyou.started,text_4.started,text_4.stopped,thankyou.stopped,participant,age,date,expName,psychopyVersion,frameRate,expStart
,,,,,,,,,,,,,,,,0.0871985,0.1047104,0.1047104,1.4270049,space,1.3169578,None,,,,,,,,,,,,,,,,,,,,,,,,,,,,,,,,925110,21,2024-11-23_13h21.53.601,imagecondition1,2024.2.1,60.22017701,2024-11-23 13h22.03.648668 +0530
microwave,images/microwave.jpg,noun,0,0,0, noun,1,[2.4993868999999904],[2.499395400000026],0,0,0,2,1.4532378,,,,,,,,,1.4392081,1.4532378,2.4540846,2.4540846,2.4540846,2.4540846,2.4705855,4.9540888, noun,1,[2.4993868999999904],[2.499395400000026],,,,,,,,,,,,,,,,,,,,925110,21,2024-11-23_13h21.53.601,imagecondition1,2024.2.1,60.22017701,2024-11-23 13h22.03.648668 +0530
peeling,images/peeling.jpg,verb,1,1,0,verb,1,[2.432987400000002],[2.4329981000000203],0,1,1,19,4.9694119,,,,,,,,,4.9603613,4.9694119,5.985022,5.985022,5.985022,5.985022,5.985022,8.4187458,verb,1,[2.432987400000002],[2.4329981000000203],,,,,,,,,,,,,,,,,,,,925110,21,2024-11-23_13h21.53.601,imagecondition1,2024.2.1,60.22017701,2024-11-23 13h22.03.648668 +0530
boiling,images/boiling.jpg,verb,2,2,0,verb,1,[2.299454400000002],[2.2994613999999842],0,2,2,14,8.4340605,,,,,,,,,8.4247034,8.4340605,9.4499093,9.4499093,9.4499093,9.4499093,9.4499093,11.7500967,verb,1,[2.299454400000002],[2.2994613999999842],,,,,,,,,,,,,,,,,,,,925110,21,2024-11-23_13h21.53.601,imagecondition1,2024.2.1,60.22017701,2024-11-23 13h22.03.648668 +0530
grating,images/grating.jpg,verb,3,3,0,verb,1,[2.299746099999993],[2.299754500000006],0,3,3,20,11.7657747,,,,,,,,,11.7549774,11.7657747,12.7658275,12.7658275,12.7658275,12.7658275,12.78161,15.066238,verb,1,[2.299746099999993],[2.299754500000006],,,,,,,,,,,,,,,,,,,,925110,21,2024-11-23_13h21.53.601,imagecondition1,2024.2.1,60.22017701,2024-11-23 13h22.03.648668 +0530
dish soap,images/dishsoap.jpg,noun,4,4,0,noun,1,[2.9822290999999836],[2.9822364000000334],0,4,4,9,15.0965151,,,,,,,,,15.0782104,15.0965151,16.0972588,16.0972588,16.0972588,16.0972588,16.1133257,19.0803191,noun,1,[2.9822290999999836],[2.9822364000000334],,,,,,,,,,,,,,,,,,,,925110,21,2024-11-23_13h21.53.601,imagecondition1,2024.2.1,60.22017701,2024-11-23 13h22.03.648668 +0530
refrigerator,images/refrigerator.jpg,noun,5,5,0,noun,1,[2.5553484999999796],[2.5553575000000137],0,5,5,1,19.7787073,,,,,,,,,19.75438,19.7787073,20.306658,20.306658,20.306658,20.306658,20.7787723,22.8627057,noun,1,[2.5553484999999796],[2.5553575000000137],,,,,,,,,,,,,,,,,,,,925110,21,2024-11-23_13h21.53.601,imagecondition1,2024.2.1,60.22017701,2024-11-23 13h22.03.648668 +0530
grilling,images/grilling.jpg,verb,6,6,0,verb,1,[3.952268800000013],[3.952275900000018],0,6,6,17,22.8779778,,,,,,,,,22.8692977,22.8779778,24.423447,24.423447,24.423447,24.423447,24.4430061,28.3763417,verb,1,[3.952268800000013],[3.952275900000018],,,,,,,,,,,,,,,,,,,,925110,21,2024-11-23_13h21.53.601,imagecondition1,2024.2.1,60.22017701,2024-11-23 13h22.03.648668 +0530
blending,images/blending.jpg,verb,7,7,0,verb,1,[4.06554090000003],[4.0655495000000315],0,7,7,13,28.391741,,,,,,,,,28.3850457,28.391741,29.391258,29.391258,29.391258,29.391258,29.4076829,33.4575588,verb,1,[4.06554090000003],[4.0655495000000315],,,,,,,,,,,,,,,,,,,,925110,21,2024-11-23_13h21.53.601,imagecondition1,2024.2.1,60.22017701,2024-11-23 13h22.03.648668 +0530
garnishing,images/garnishing.jpg,verb,8,8,0,verb,1,[2.7328302000000235],[2.7328378999999927],0,8,8,21,33.4730387,,,,,,,,,33.4624266,33.4730387,34.4892151,34.4892151,34.4892151,34.4892151,34.4892151,37.2227633,verb,1,[2.7328302000000235],[2.7328378999999927],,,,,,,,,,,,,,,,,,,,925110,21,2024-11-23_13h21.53.601,imagecondition1,2024.2.1,60.22017701,2024-11-23 13h22.03.648668 +0530
garbage bin,images/garbagebin.jpg,noun,9,9,0,noun,1,[2.400441600000022],[2.4004507000000217],0,9,9,7,37.253286,,,,,,,,,37.2330217,37.253286,38.2539506,38.2539506,38.2539506,38.2539506,38.2708279,40.6551768,noun,1,[2.400441600000022],[2.4004507000000217],,,,,,,,,,,,,,,,,,,,925110,21,2024-11-23_13h21.53.601,imagecondition1,2024.2.1,60.22017701,2024-11-23 13h22.03.648668 +0530
knife,images/knife.jpg,noun,10,10,0,noun,1,[3.6153372999999647],[3.61534469999998],0,10,10,5,40.6699411,,,,,,,,,40.6600759,40.6699411,41.6862139,41.6862139,41.6862139,41.6862139,41.6862139,45.3022968,noun,1,[3.6153372999999647],[3.61534469999998],,,,,,,,,,,,,,,,,,,,925110,21,2024-11-23_13h21.53.601,imagecondition1,2024.2.1,60.22017701,2024-11-23 13h22.03.648668 +0530
whisking,images/whisking.jpg,verb,11,11,0,verb,1,[2.2164669000000004],[2.216478199999983],0,11,11,18,45.3182058,,,,,,,,,45.3068358,45.3182058,46.317943,46.317943,46.317943,46.317943,46.3339926,48.5350834,verb,1,[2.2164669000000004],[2.216478199999983],,,,,,,,,,,,,,,,,,,,925110,21,2024-11-23_13h21.53.601,imagecondition1,2024.2.1,60.22017701,2024-11-23 13h22.03.648668 +0530
chopping,images/chopping.jpg,verb,12,12,0,verb,1,[2.2652469000000224],[2.265254299999981],0,12,12,12,48.549478,,,,,,,,,48.5396173,48.549478,49.5502215,49.5502215,49.5502215,49.5502215,49.5502215,51.8162425,verb,1,[2.2652469000000224],[2.265254299999981],,,,,,,,,,,,,,,,,,,,925110,21,2024-11-23_13h21.53.601,imagecondition1,2024.2.1,60.22017701,2024-11-23 13h22.03.648668 +0530
frying,images/frying.jpg,verb,13,13,0,verb,1,[2.0826453000000242],[2.082655000000045],0,13,13,15,51.8321804,,,,,,,,,51.8208786,51.8321804,52.8478952,52.8478952,52.8478952,52.8478952,52.8644371,54.9312153,verb,1,[2.0826453000000242],[2.082655000000045],,,,,,,,,,,,,,,,,,,,925110,21,2024-11-23_13h21.53.601,imagecondition1,2024.2.1,60.22017701,2024-11-23 13h22.03.648668 +0530
cooker,images/cooker.jpg,noun,14,14,0,noun,1,[2.3159965000000398],[2.316005300000029],0,14,14,3,54.9628718,,,,,,,,,54.9499116,54.9628718,55.9635831,55.9635831,55.9635831,55.9635831,55.9801292,58.2802917,noun,1,[2.3159965000000398],[2.316005300000029],,,,,,,,,,,,,,,,,,,,925110,21,2024-11-23_13h21.53.601,imagecondition1,2024.2.1,60.22017701,2024-11-23 13h22.03.648668 +0530
jar,images/jar.jpg,noun,15,15,0,noun,1,[2.733133900000041],[2.7331431000000066],0,15,15,4,58.295674,,,,,,,,,58.2872567,58.295674,59.3119627,59.3119627,59.3119627,59.3119627,59.3119627,62.0458572,noun,1,[2.733133900000041],[2.7331431000000066],,,,,,,,,,,,,,,,,,,,925110,21,2024-11-23_13h21.53.601,imagecondition1,2024.2.1,60.22017701,2024-11-23 13h22.03.648668 +0530
ice tray,images/icetray.jpg,noun,16,16,0,noun,1,[4.7811272000000145],[4.781134800000018],0,16,16,10,62.0607096,,,,,,,,,62.0506669,62.0607096,63.0606872,63.0606872,63.0606872,63.0606872,63.0606872,67.8425671,noun,1,[4.7811272000000145],[4.781134800000018],,,,,,,,,,,,,,,,,,,,925110,21,2024-11-23_13h21.53.601,imagecondition1,2024.2.1,60.22017701,2024-11-23 13h22.03.648668 +0530
baking,images/baking.jpg,verb,17,17,0,verb,1,[3.0140430999999808],[3.0140526999999793],0,17,17,16,67.8587842,,,,,,,,,67.8470419,67.8587842,68.8763413,68.8763413,68.8763413,68.8763413,68.8911631,71.8911231,verb,1,[3.0140430999999808],[3.0140526999999793],,,,,,,,,,,,,,,,,,,,925110,21,2024-11-23_13h21.53.601,imagecondition1,2024.2.1,60.22017701,2024-11-23 13h22.03.648668 +0530
grinding,images/grinding.jpg,verb,18,18,0,verb,1,[2.1493785999999773],[2.149385699999982],0,18,18,23,71.9061273,,,,,,,,,71.8957316,71.9061273,72.9063791,72.9063791,72.9063791,72.9063791,72.9063791,75.0565209,verb,1,[2.1493785999999773],[2.149385699999982],,,,,,,,,,,,,,,,,,,,925110,21,2024-11-23_13h21.53.601,imagecondition1,2024.2.1,60.22017701,2024-11-23 13h22.03.648668 +0530
fruit basket,images/fruitbasket.jpg,noun,19,19,0,noun,1,[2.665383399999996],[2.6653921999999852],0,19,19,11,75.0711436,,,,,,,,,75.0613655,75.0711436,76.0717478,76.0717478,76.0717478,76.0717478,76.0882151,78.7378403,noun,1,[2.665383399999996],[2.6653921999999852],,,,,,,,,,,,,,,,,,,,925110,21,2024-11-23_13h21.53.601,imagecondition1,2024.2.1,60.22017701,2024-11-23 13h22.03.648668 +0530
bottle opener,images/bottleopener.jpg,noun,20,20,0,noun,1,[2.1993284999999787],[2.199338599999976],0,20,20,8,78.7536219,,,,,,,,,78.742627,78.7536219,79.7369817,79.7369817,79.7369817,79.7369817,79.7533168,81.9370973,noun,1,[2.1993284999999787],[2.199338599999976],,,,,,,,,,,,,,,,,,,,925110,21,2024-11-23_13h21.53.601,imagecondition1,2024.2.1,60.22017701,2024-11-23 13h22.03.648668 +0530
stove,images/stove.jpg,noun,21,21,0,noun,1,[2.1157352000000174],[2.115742800000021],0,21,21,0,81.9680325,,,,,,,,,81.9520379,81.9680325,82.9689298,82.9689298,82.9689298,82.9689298,82.9854799,85.0854296,noun,1,[2.1157352000000174],[2.115742800000021],,,,,,,,,,,,,,,,,,,,925110,21,2024-11-23_13h21.53.601,imagecondition1,2024.2.1,60.22017701,2024-11-23 13h22.03.648668 +0530
rolling pin,images/rollingpin.jpg,noun,22,22,0,noun,1,[2.1335090999999693],[2.1335182999999915],0,22,22,6,85.1009337,,,,,,,,,85.0903268,85.1009337,86.1165609,86.1165609,86.1165609,86.1165609,86.1165609,88.2507313,noun,1,[2.1335090999999693],[2.1335182999999915],,,,,,,,,,,,,,,,,,,,925110,21,2024-11-23_13h21.53.601,imagecondition1,2024.2.1,60.22017701,2024-11-23 13h22.03.648668 +0530
mashing,images/mashing.jpg,verb,23,23,0,verb,1,[2.965385700000013],[2.965398900000025],0,23,23,22,88.2660163,,,,,,,,,88.2554034,88.2660163,89.283031,89.283031,89.283031,89.283031,89.283031,92.249231,verb,1,[2.965385700000013],[2.965398900000025],,,,,,,,,,,,,,,,,,,,925110,21,2024-11-23_13h21.53.601,imagecondition1,2024.2.1,60.22017701,2024-11-23 13h22.03.648668 +0530
,,,,,,,,,,,,,,,,,,,,,,,,,,,,,,,,,,,92.2494452,92.264345,92.264345,93.5654773,space,1.2926462,None,,,,,,,,,,,,,925110,21,2024-11-23_13h21.53.601,imagecondition1,2024.2.1,60.22017701,2024-11-23 13h22.03.648668 +0530
,,,,,,,,,,,,,,,,,,,,,,,,,,,,,,,,,,,,,,,,,,93.5670804,93.5803592,93.5803592,167.8832109," dish soap, knife, fruit basket, cooker, microwave, peeling, mashing, grinding, grilling, baking, whisking, rolling pin, stove, refrigerator,bottle opener",1,[74.30185239999997],[74.30186150000003],,,,,925110,21,2024-11-23_13h21.53.601,imagecondition1,2024.2.1,60.22017701,2024-11-23 13h22.03.648668 +0530
,,,,,,,,,,,,,,,,,,,,,,,,,,,,,,,,,,,,,,,,,,,,,,,,,,167.8833268,167.8986132,170.8974756,170.8817562,925110,21,2024-11-23_13h21.53.601,imagecondition1,2024.2.1,60.22017701,2024-11-23 13h22.03.648668 +0530
