thisN,thisTrialN,thisRepN,mouse.x,mouse.y,mouse.leftButton,mouse.midButton,mouse.rightButton,mouse.time,mouse.clicked_name,trials.thisRepN,trials.thisTrialN,trials.thisN,trials.thisIndex,thisRow.t,notes,Instructions.started,text.started,Instructions.stopped,num_distr,trial.started,fixation.started,target.started,mouse.started,trial.stopped,trials.mouse.x,trials.mouse.y,trials.mouse.leftButton,trials.mouse.midButton,trials.mouse.rightButton,trials.mouse.time,trials.mouse.clicked_name,participant,date,expName,psychopyVersion,frameRate,expStart,
,,,,,,,,,,,,,,,,0.027723000006517395,0.04616900000110036,7.008912200006307,,,,,,,,,,,,,,AN,2024-10-10_18h54.05.602,visualsearchtask,2024.2.1,60.39110487405529,2024-10-10 18h54.30.270239 +0530,
0,0,0,[-0.13625],[-0.155],[1],[0],[0],[1.8036132999986876],['target'],0,0,0,0,7.055032200005371,,,,,10,7.039528400004201,7.055032200005371,7.055032200005371,0.03920230000221636,8.843574500002433,[-0.13625],[-0.155],[1],[0],[0],[1.8036132999986876],['target'],AN,2024-10-10_18h54.05.602,visualsearchtask,2024.2.1,60.39110487405529,2024-10-10 18h54.30.270239 +0530,
1,0,1,[0.32375],[0.15],[1],[0],[0],[2.4362870000040857],['target'],1,0,1,0,8.874702400004026,,,,,5,8.855592899999465,8.874702400004026,8.874702400004026,0.011820599997008685,11.29224080000131,[0.32375],[0.15],[1],[0],[0],[2.4362870000040857],['target'],AN,2024-10-10_18h54.05.602,visualsearchtask,2024.2.1,60.39110487405529,2024-10-10 18h54.30.270239 +0530,
2,0,2,[-0.47625],[-0.08375],[1],[0],[0],[3.805686199993943],['target'],2,0,2,0,11.331314700000803,,,,,10,11.317945200004033,11.331314700000803,11.331314700000803,0.02553539999644272,15.124005900004704,[-0.47625],[-0.08375],[1],[0],[0],[3.805686199993943],['target'],AN,2024-10-10_18h54.05.602,visualsearchtask,2024.2.1,60.39110487405529,2024-10-10 18h54.30.270239 +0530,
3,0,3,[-0.0325],[0.30125],[1],[0],[0],[2.5215978999985964],[None],3,0,3,0,15.16405730000406,,,,,10,15.150732300004165,15.16405730000406,15.16405730000406,0.02651530000002822,17.67265110000153,[-0.0325],[0.30125],[1],[0],[0],[2.5215978999985964],[None],AN,2024-10-10_18h54.05.602,visualsearchtask,2024.2.1,60.39110487405529,2024-10-10 18h54.30.270239 +0530,
4,0,4,[0.22625],[0.2725],[1],[0],[0],[2.824240900001314],['target'],4,0,4,0,17.709765500003414,,,,,10,17.69681230000424,17.709765500003414,17.709765500003414,0.023976399999810383,20.521477500005858,[0.22625],[0.2725],[1],[0],[0],[2.824240900001314],['target'],AN,2024-10-10_18h54.05.602,visualsearchtask,2024.2.1,60.39110487405529,2024-10-10 18h54.30.270239 +0530,
5,0,5,[-0.47875],[-0.41],[1],[0],[0],[2.6579217000034987],['target'],5,0,5,0,20.55759200000466,,,,,10,20.545385299999907,20.55759200000466,20.55759200000466,0.023733499998343177,23.203770899999654,[-0.47875],[-0.41],[1],[0],[0],[2.6579217000034987],['target'],AN,2024-10-10_18h54.05.602,visualsearchtask,2024.2.1,60.39110487405529,2024-10-10 18h54.30.270239 +0530,
6,0,6,[-0.08625],[0.06],[1],[0],[0],[1.591962099999364],['target'],6,0,6,0,23.241478000003553,,,,,10,23.227680100004363,23.241478000003553,23.241478000003553,0.023741200006043073,24.820002100001147,[-0.08625],[0.06],[1],[0],[0],[1.591962099999364],['target'],AN,2024-10-10_18h54.05.602,visualsearchtask,2024.2.1,60.39110487405529,2024-10-10 18h54.30.270239 +0530,
7,0,7,[-0.3],[0.445],[1],[0],[0],[1.7176899000041885],['target'],7,0,7,0,24.850351100001717,,,,,5,24.834226800005126,24.850351100001717,24.850351100001717,0.014075599996431265,26.55227520000335,[-0.3],[0.445],[1],[0],[0],[1.7176899000041885],['target'],AN,2024-10-10_18h54.05.602,visualsearchtask,2024.2.1,60.39110487405529,2024-10-10 18h54.30.270239 +0530,
8,0,8,[0.21875],[-0.2725],[1],[0],[0],[1.6189770999990287],['target'],8,0,8,0,26.583393700006127,,,,,5,26.568477700006042,26.583393700006127,26.583393700006127,0.016029999998863786,28.187903600002755,[0.21875],[-0.2725],[1],[0],[0],[1.6189770999990287],['target'],AN,2024-10-10_18h54.05.602,visualsearchtask,2024.2.1,60.39110487405529,2024-10-10 18h54.30.270239 +0530,
9,0,9,[0.44625],[0.22875],[1],[0],[0],[1.5521240000016405],['target'],9,0,9,0,28.22738450000179,,,,,10,28.21468950000417,28.22738450000179,28.22738450000179,0.02663080000638729,29.767259500004002,[0.44625],[0.22875],[1],[0],[0],[1.5521240000016405],['target'],AN,2024-10-10_18h54.05.602,visualsearchtask,2024.2.1,60.39110487405529,2024-10-10 18h54.30.270239 +0530,
10,0,10,[0.17375],[0.235],[1],[0],[0],[2.1332637000014074],[None],10,0,10,0,29.799645099999907,,,,,5,29.783373400001437,29.799645099999907,29.799645099999907,0.015962099998432677,31.9169710999995,[0.17375],[0.235],[1],[0],[0],[2.1332637000014074],[None],AN,2024-10-10_18h54.05.602,visualsearchtask,2024.2.1,60.39110487405529,2024-10-10 18h54.30.270239 +0530,
11,0,11,[0.1575],[0.4475],[1],[0],[0],[1.3195433000000776],['target'],11,0,11,0,31.946998200000962,,,,,5,31.929620100003376,31.946998200000962,31.946998200000962,0.012521600001491606,33.24946970000019,[0.1575],[0.4475],[1],[0],[0],[1.3195433000000776],['target'],AN,2024-10-10_18h54.05.602,visualsearchtask,2024.2.1,60.39110487405529,2024-10-10 18h54.30.270239 +0530,
12,0,12,[-0.175],[0.04875],[1],[0],[0],[1.3686387999987346],['target'],12,0,12,0,33.280889699999534,,,,,5,33.2628274000017,33.280889699999534,33.280889699999534,0.013245299996924587,34.631818400004704,[-0.175],[0.04875],[1],[0],[0],[1.3686387999987346],['target'],AN,2024-10-10_18h54.05.602,visualsearchtask,2024.2.1,60.39110487405529,2024-10-10 18h54.30.270239 +0530,
13,0,13,[0.31875],[0.1675],[1],[0],[0],[1.2582811000029324],[None],13,0,13,0,34.669065000001865,,,,,10,34.65612859999965,34.669065000001865,34.669065000001865,0.02418290000059642,35.91478430000279,[0.31875],[0.1675],[1],[0],[0],[1.2582811000029324],[None],AN,2024-10-10_18h54.05.602,visualsearchtask,2024.2.1,60.39110487405529,2024-10-10 18h54.30.270239 +0530,
14,0,14,[0.2125],[0.44375],[1],[0],[0],[1.4511535999990883],['target'],14,0,14,0,35.94647090000217,,,,,5,35.93012400000589,35.94647090000217,35.94647090000217,0.01513429999613436,37.381582900001376,[0.2125],[0.44375],[1],[0],[0],[1.4511535999990883],['target'],AN,2024-10-10_18h54.05.602,visualsearchtask,2024.2.1,60.39110487405529,2024-10-10 18h54.30.270239 +0530,
15,0,15,[-0.11625],[0.21],[1],[0],[0],[2.855525099999795],['target'],15,0,15,0,37.419973399999435,,,,,10,37.40720660000079,37.419973399999435,37.419973399999435,0.025511900006677024,40.26312280000275,[-0.11625],[0.21],[1],[0],[0],[2.855525099999795],['target'],AN,2024-10-10_18h54.05.602,visualsearchtask,2024.2.1,60.39110487405529,2024-10-10 18h54.30.270239 +0530,
16,0,16,[-0.1425],[0.13],[1],[0],[0],[1.7219780999948853],['target'],16,0,16,0,40.303540000000794,,,,,10,40.290268900003866,40.303540000000794,40.303540000000794,0.026939699993818067,42.01266480000049,[-0.1425],[0.13],[1],[0],[0],[1.7219780999948853],['target'],AN,2024-10-10_18h54.05.602,visualsearchtask,2024.2.1,60.39110487405529,2024-10-10 18h54.30.270239 +0530,
17,0,17,[0.41375],[-0.3725],[1],[0],[0],[2.332223099998373],['target'],17,0,17,0,42.058193400000164,,,,,10,42.045363900004304,42.058193400000164,42.058193400000164,0.032470400001329836,44.37804320000578,[0.41375],[-0.3725],[1],[0],[0],[2.332223099998373],['target'],AN,2024-10-10_18h54.05.602,visualsearchtask,2024.2.1,60.39110487405529,2024-10-10 18h54.30.270239 +0530,
18,0,18,[-0.33],[-0.41],[1],[0],[0],[1.703205900004832],['target'],18,0,18,0,44.40913100000034,,,,,5,44.39056800000253,44.40913100000034,44.40913100000034,0.012323499999183696,46.09413900000072,[-0.33],[-0.41],[1],[0],[0],[1.703205900004832],['target'],AN,2024-10-10_18h54.05.602,visualsearchtask,2024.2.1,60.39110487405529,2024-10-10 18h54.30.270239 +0530,
19,0,19,[0.375],[-0.41125],[1],[0],[0],[1.8499178999991273],['target'],19,0,19,0,46.124808000000485,,,,,5,46.10917110000446,46.124808000000485,46.124808000000485,0.014856000001600478,47.95939890000591,[0.375],[-0.41125],[1],[0],[0],[1.8499178999991273],['target'],AN,2024-10-10_18h54.05.602,visualsearchtask,2024.2.1,60.39110487405529,2024-10-10 18h54.30.270239 +0530,
20,0,20,[-0.20875],[-0.24375],[1],[0],[0],[1.142593799995666],['target'],20,0,20,0,47.99612110000453,,,,,10,47.9832322000002,47.99612110000453,47.99612110000453,0.023702599995885976,49.12615740000183,[-0.20875],[-0.24375],[1],[0],[0],[1.142593799995666],['target'],AN,2024-10-10_18h54.05.602,visualsearchtask,2024.2.1,60.39110487405529,2024-10-10 18h54.30.270239 +0530,
21,0,21,[-0.14],[0.21375],[1],[0],[0],[1.471793600001547],['target'],21,0,21,0,49.16640069999994,,,,,10,49.15325870000379,49.16640069999994,49.16640069999994,0.0268830999993952,50.62537010000233,[-0.14],[0.21375],[1],[0],[0],[1.471793600001547],['target'],AN,2024-10-10_18h54.05.602,visualsearchtask,2024.2.1,60.39110487405529,2024-10-10 18h54.30.270239 +0530,
22,0,22,[0.29125],[0.2775],[1],[0],[0],[1.520323600001575],['target'],22,0,22,0,50.656502300000284,,,,,5,50.637654800004384,50.656502300000284,50.656502300000284,0.012134099997638259,52.15833530000236,[0.29125],[0.2775],[1],[0],[0],[1.520323600001575],['target'],AN,2024-10-10_18h54.05.602,visualsearchtask,2024.2.1,60.39110487405529,2024-10-10 18h54.30.270239 +0530,
23,0,23,[-0.05625],[0.40375],[1],[0],[0],[1.821782599996368],['target'],23,0,23,0,52.1986892000059,,,,,10,52.184925000001385,52.1986892000059,52.1986892000059,0.026406900004076306,54.00708210000448,[-0.05625],[0.40375],[1],[0],[0],[1.821782599996368],['target'],AN,2024-10-10_18h54.05.602,visualsearchtask,2024.2.1,60.39110487405529,2024-10-10 18h54.30.270239 +0530,
24,0,24,[0.21875],[-0.45625],[1],[0],[0],[1.5168172999983653],['target'],24,0,24,0,54.037850900000194,,,,,5,54.022480100000394,54.037850900000194,54.037850900000194,0.015188299999863375,55.539700000001176,[0.21875],[-0.45625],[1],[0],[0],[1.5168172999983653],['target'],AN,2024-10-10_18h54.05.602,visualsearchtask,2024.2.1,60.39110487405529,2024-10-10 18h54.30.270239 +0530,
25,0,25,[0.11],[-0.08625],[1],[0],[0],[1.037432600001921],['target'],25,0,25,0,55.571331200000714,,,,,5,55.55140630000096,55.571331200000714,55.571331200000714,0.01154359999782173,56.58928980000201,[0.11],[-0.08625],[1],[0],[0],[1.037432600001921],['target'],AN,2024-10-10_18h54.05.602,visualsearchtask,2024.2.1,60.39110487405529,2024-10-10 18h54.30.270239 +0530,
26,0,26,[0.08],[-0.25875],[1],[0],[0],[1.2700956999979098],['target'],26,0,26,0,56.621013000003586,,,,,5,56.60193070000241,56.621013000003586,56.621013000003586,0.012492100002418738,57.87234850000095,[0.08],[-0.25875],[1],[0],[0],[1.2700956999979098],['target'],AN,2024-10-10_18h54.05.602,visualsearchtask,2024.2.1,60.39110487405529,2024-10-10 18h54.30.270239 +0530,
27,0,27,[-0.3],[-0.02],[1],[0],[0],[1.266605199998594],['target'],27,0,27,0,57.90275150000525,,,,,5,57.887672000004386,57.90275150000525,57.90275150000525,0.015137900001718663,59.15462640000624,[-0.3],[-0.02],[1],[0],[0],[1.266605199998594],['target'],AN,2024-10-10_18h54.05.602,visualsearchtask,2024.2.1,60.39110487405529,2024-10-10 18h54.30.270239 +0530,
28,0,28,[0.47625],[-0.0225],[1],[0],[0],[1.6064197000014246],['target'],28,0,28,0,59.19402450000052,,,,,10,59.18087620000006,59.19402450000052,59.19402450000052,0.026089899998623878,60.7876768999995,[0.47625],[-0.0225],[1],[0],[0],[1.6064197000014246],['target'],AN,2024-10-10_18h54.05.602,visualsearchtask,2024.2.1,60.39110487405529,2024-10-10 18h54.30.270239 +0530,
29,0,29,[-0.26875],[0.43875],[1],[0],[0],[3.2572588000039104],['target'],29,0,29,0,60.82480600000417,,,,,10,60.812186900002416,60.82480600000417,60.82480600000417,0.024352500004169997,64.06987010000012,[-0.26875],[0.43875],[1],[0],[0],[3.2572588000039104],['target'],AN,2024-10-10_18h54.05.602,visualsearchtask,2024.2.1,60.39110487405529,2024-10-10 18h54.30.270239 +0530,
30,0,30,[-0.11625],[-0.07125],[1],[0],[0],[1.720288199998322],['target'],30,0,30,0,64.100216800005,,,,,5,64.08199570000579,64.100216800005,64.100216800005,0.011970699997618794,65.8026205999995,[-0.11625],[-0.07125],[1],[0],[0],[1.720288199998322],['target'],AN,2024-10-10_18h54.05.602,visualsearchtask,2024.2.1,60.39110487405529,2024-10-10 18h54.30.270239 +0530,
31,0,31,[-0.45875],[-0.23875],[1],[0],[0],[1.557127500003844],['target'],31,0,31,0,65.83958859999984,,,,,10,65.82676450000145,65.83958859999984,65.83958859999984,0.024011699999391567,67.38434690000577,[-0.45875],[-0.23875],[1],[0],[0],[1.557127500003844],['target'],AN,2024-10-10_18h54.05.602,visualsearchtask,2024.2.1,60.39110487405529,2024-10-10 18h54.30.270239 +0530,
32,0,32,[0.26875],[0.085],[1],[0],[0],[1.4101319999972475],['target'],32,0,32,0,67.41940060000343,,,,,10,67.40718730000663,67.41940060000343,67.41940060000343,0.022672099999908824,68.81762680000247,[0.26875],[0.085],[1],[0],[0],[1.4101319999972475],['target'],AN,2024-10-10_18h54.05.602,visualsearchtask,2024.2.1,60.39110487405529,2024-10-10 18h54.30.270239 +0530,
33,0,33,[-0.1675],[-0.20125],[1],[0],[0],[1.503420900000492],['target'],33,0,33,0,68.84831080000004,,,,,5,68.82975000000442,68.84831080000004,68.84831080000004,0.011974200002441648,70.33353270000225,[-0.1675],[-0.20125],[1],[0],[0],[1.503420900000492],['target'],AN,2024-10-10_18h54.05.602,visualsearchtask,2024.2.1,60.39110487405529,2024-10-10 18h54.30.270239 +0530,
34,0,34,[-0.195],[0.45],[1],[0],[0],[1.809265099996992],[None],34,0,34,0,70.36989110000286,,,,,10,70.35645280000608,70.36989110000286,70.36989110000286,0.02278690000093775,72.16613760000473,[-0.195],[0.45],[1],[0],[0],[1.809265099996992],[None],AN,2024-10-10_18h54.05.602,visualsearchtask,2024.2.1,60.39110487405529,2024-10-10 18h54.30.270239 +0530,
35,0,35,[0.38875],[0.25875],[1],[0],[0],[3.1493897999971523],['target'],35,0,35,0,72.19677850000153,,,,,5,72.18117630000052,72.19677850000153,72.19677850000153,0.014835000001767185,75.33096320000186,[0.38875],[0.25875],[1],[0],[0],[3.1493897999971523],['target'],AN,2024-10-10_18h54.05.602,visualsearchtask,2024.2.1,60.39110487405529,2024-10-10 18h54.30.270239 +0530,
36,0,36,[0.29],[-0.30875],[1],[0],[0],[1.3692817999981344],['target'],36,0,36,0,75.36194149999938,,,,,5,75.34331220000604,75.36194149999938,75.36194149999938,0.012226799997733906,76.71293890000379,[0.29],[-0.30875],[1],[0],[0],[1.3692817999981344],['target'],AN,2024-10-10_18h54.05.602,visualsearchtask,2024.2.1,60.39110487405529,2024-10-10 18h54.30.270239 +0530,
37,0,37,[0.3075],[0.1925],[1],[0],[0],[1.694876800000202],['target'],37,0,37,0,76.75001530000009,,,,,10,76.7376288000014,76.75001530000009,76.75001530000009,0.024564200000895653,78.43294170000445,[0.3075],[0.1925],[1],[0],[0],[1.694876800000202],['target'],AN,2024-10-10_18h54.05.602,visualsearchtask,2024.2.1,60.39110487405529,2024-10-10 18h54.30.270239 +0530,
38,0,38,[0.28125],[0.00625],[1],[0],[0],[1.3011194999999134],['target'],38,0,38,0,78.47854660000303,,,,,10,78.46106220000365,78.47854660000303,78.47854660000303,0.027880600006028544,79.76256100000319,[0.28125],[0.00625],[1],[0],[0],[1.3011194999999134],['target'],AN,2024-10-10_18h54.05.602,visualsearchtask,2024.2.1,60.39110487405529,2024-10-10 18h54.30.270239 +0530,
39,0,39,[0.0425],[0.44625],[1],[0],[0],[1.6527768000014476],['target'],39,0,39,0,79.79261590000533,,,,,5,79.77488920000178,79.79261590000533,79.79261590000533,0.012178299999504816,81.42804650000471,[0.0425],[0.44625],[1],[0],[0],[1.6527768000014476],['target'],AN,2024-10-10_18h54.05.602,visualsearchtask,2024.2.1,60.39110487405529,2024-10-10 18h54.30.270239 +0530,
40,0,40,[0.27125],[-0.44375],[1],[0],[0],[1.639391999997315],['target'],40,0,40,0,81.4662243000057,,,,,10,81.4539775000012,81.4662243000057,81.4662243000057,0.02576730000146199,83.09379940000508,[0.27125],[-0.44375],[1],[0],[0],[1.639391999997315],['target'],AN,2024-10-10_18h54.05.602,visualsearchtask,2024.2.1,60.39110487405529,2024-10-10 18h54.30.270239 +0530,
41,0,41,[0.15875],[0.19375],[1],[0],[0],[1.0762035999941872],['target'],41,0,41,0,83.12930920000508,,,,,10,83.11665340000036,83.12930920000508,83.12930920000508,0.022691000005579554,84.19321930000297,[0.15875],[0.19375],[1],[0],[0],[1.0762035999941872],['target'],AN,2024-10-10_18h54.05.602,visualsearchtask,2024.2.1,60.39110487405529,2024-10-10 18h54.30.270239 +0530,
42,0,42,[0.075],[-0.43125],[1],[0],[0],[1.5095151999994414],['target'],42,0,42,0,84.22852910000074,,,,,10,84.21625330000097,84.22852910000074,84.22852910000074,0.022875100003147963,85.72622630000114,[0.075],[-0.43125],[1],[0],[0],[1.5095151999994414],['target'],AN,2024-10-10_18h54.05.602,visualsearchtask,2024.2.1,60.39110487405529,2024-10-10 18h54.30.270239 +0530,
43,0,43,[-0.33625],[0.18375],[1],[0],[0],[1.4540151999972295],['target'],43,0,43,0,85.75699490000261,,,,,5,85.7383725000036,85.75699490000261,85.75699490000261,0.011916800001927186,87.19279000000097,[-0.33625],[0.18375],[1],[0],[0],[1.4540151999972295],['target'],AN,2024-10-10_18h54.05.602,visualsearchtask,2024.2.1,60.39110487405529,2024-10-10 18h54.30.270239 +0530,
44,0,44,[-0.4975],[0.44125],[1],[0],[0],[1.6199918999991496],['target'],44,0,44,0,87.2227847000031,,,,,5,87.20465330000297,87.2227847000031,87.2227847000031,0.011730600002920255,88.82501590000174,[-0.4975],[0.44125],[1],[0],[0],[1.6199918999991496],['target'],AN,2024-10-10_18h54.05.602,visualsearchtask,2024.2.1,60.39110487405529,2024-10-10 18h54.30.270239 +0530,
45,0,45,[0.39625],[0.04],[1],[0],[0],[2.1362212999956682],['target'],45,0,45,0,88.85575050000625,,,,,5,88.83697760000359,88.85575050000625,88.85575050000625,0.011829499999294057,90.9736825,[0.39625],[0.04],[1],[0],[0],[2.1362212999956682],['target'],AN,2024-10-10_18h54.05.602,visualsearchtask,2024.2.1,60.39110487405529,2024-10-10 18h54.30.270239 +0530,
46,0,46,[0.44875],[0.33125],[1],[0],[0],[1.3569508000000496],['target'],46,0,46,0,91.01150360000611,,,,,10,90.99888420000207,91.01150360000611,91.01150360000611,0.025055599995539524,92.35619470000529,[0.44875],[0.33125],[1],[0],[0],[1.3569508000000496],['target'],AN,2024-10-10_18h54.05.602,visualsearchtask,2024.2.1,60.39110487405529,2024-10-10 18h54.30.270239 +0530,
47,0,47,[0.05125],[-0.4025],[1],[0],[0],[1.4558240999976988],['target'],47,0,47,0,92.39484160000575,,,,,10,92.38292039999942,92.39484160000575,92.39484160000575,0.026533600001130253,93.83910740000283,[0.05125],[-0.4025],[1],[0],[0],[1.4558240999976988],['target'],AN,2024-10-10_18h54.05.602,visualsearchtask,2024.2.1,60.39110487405529,2024-10-10 18h54.30.270239 +0530,
48,0,48,[0.37625],[0.46375],[1],[0],[0],[1.9247547000049963],['target'],48,0,48,0,93.87549000000581,,,,,10,93.86331490000157,93.87549000000581,93.87549000000581,0.02401629999803845,95.78850610000518,[0.37625],[0.46375],[1],[0],[0],[1.9247547000049963],['target'],AN,2024-10-10_18h54.05.602,visualsearchtask,2024.2.1,60.39110487405529,2024-10-10 18h54.30.270239 +0530,
49,0,49,[-0.23875],[-0.34125],[1],[0],[0],[1.7403769999946235],['target'],49,0,49,0,95.8252410999994,,,,,10,95.8135076000035,95.8252410999994,95.8252410999994,0.02482909999525873,97.5542287000062,[-0.23875],[-0.34125],[1],[0],[0],[1.7403769999946235],['target'],AN,2024-10-10_18h54.05.602,visualsearchtask,2024.2.1,60.39110487405529,2024-10-10 18h54.30.270239 +0530,
50,0,50,[0.1825],[0.0875],[1],[0],[0],[1.3085912999958964],['target'],50,0,50,0,97.5910057000001,,,,,10,97.57806910000363,97.5910057000001,97.5910057000001,0.02369619999808492,98.8869760000016,[0.1825],[0.0875],[1],[0],[0],[1.3085912999958964],['target'],AN,2024-10-10_18h54.05.602,visualsearchtask,2024.2.1,60.39110487405529,2024-10-10 18h54.30.270239 +0530,
51,0,51,[0.4175],[-0.18125],[1],[0],[0],[2.042782600001374],['target'],51,0,51,0,98.92225690000487,,,,,10,98.91023760000098,98.92225690000487,98.92225690000487,0.023115000003599562,100.95343990000401,[0.4175],[-0.18125],[1],[0],[0],[2.042782600001374],['target'],AN,2024-10-10_18h54.05.602,visualsearchtask,2024.2.1,60.39110487405529,2024-10-10 18h54.30.270239 +0530,
52,0,52,[-0.3575],[-0.3425],[1],[0],[0],[1.569350800004031],['target'],52,0,52,0,100.98354070000642,,,,,5,100.96611730000586,100.98354070000642,100.98354070000642,0.01247779999539489,102.53583730000537,[-0.3575],[-0.3425],[1],[0],[0],[1.569350800004031],['target'],AN,2024-10-10_18h54.05.602,visualsearchtask,2024.2.1,60.39110487405529,2024-10-10 18h54.30.270239 +0530,
53,0,53,[-0.18],[-0.46625],[1],[0],[0],[1.087118499999633],['target'],53,0,53,0,102.6351036000051,,,,,5,102.54819260000659,102.6351036000051,102.6351036000051,0.012229300002218224,103.63566170000558,[-0.18],[-0.46625],[1],[0],[0],[1.087118499999633],['target'],AN,2024-10-10_18h54.05.602,visualsearchtask,2024.2.1,60.39110487405529,2024-10-10 18h54.30.270239 +0530,
54,0,54,[-0.2425],[0.35875],[1],[0],[0],[1.9079349000021466],['target'],54,0,54,0,103.67157220000081,,,,,10,103.65939070000604,103.67157220000081,103.67157220000081,0.023598100000526756,105.56767330000002,[-0.2425],[0.35875],[1],[0],[0],[1.9079349000021466],['target'],AN,2024-10-10_18h54.05.602,visualsearchtask,2024.2.1,60.39110487405529,2024-10-10 18h54.30.270239 +0530,
55,0,55,[-0.02375],[0.47],[1],[0],[0],[2.186306000003242],['target'],55,0,55,0,105.59906300000148,,,,,5,105.58043960000214,105.59906300000148,105.59906300000148,0.012613600003533065,107.76714720000018,[-0.02375],[0.47],[1],[0],[0],[2.186306000003242],['target'],AN,2024-10-10_18h54.05.602,visualsearchtask,2024.2.1,60.39110487405529,2024-10-10 18h54.30.270239 +0530,
56,0,56,[0.32375],[-0.0875],[1],[0],[0],[1.8742389999970328],['target'],56,0,56,0,107.80340050000086,,,,,10,107.79127560000052,107.80340050000086,107.80340050000086,0.023994900002435315,109.66591450000124,[0.32375],[-0.0875],[1],[0],[0],[1.8742389999970328],['target'],AN,2024-10-10_18h54.05.602,visualsearchtask,2024.2.1,60.39110487405529,2024-10-10 18h54.30.270239 +0530,
57,0,57,[-0.34625],[0.46375],[1],[0],[0],[2.172749700002896],['target'],57,0,57,0,109.70413700000063,,,,,10,109.69214190000639,109.70413700000063,109.70413700000063,0.026029999993625097,111.86537070000486,[-0.34625],[0.46375],[1],[0],[0],[2.172749700002896],['target'],AN,2024-10-10_18h54.05.602,visualsearchtask,2024.2.1,60.39110487405529,2024-10-10 18h54.30.270239 +0530,
58,0,58,[0.44875],[0.06],[1],[0],[0],[1.2760219000047073],['target'],58,0,58,0,111.90108429999964,,,,,10,111.8888603000014,111.90108429999964,111.90108429999964,0.02328059999854304,113.16534070000489,[0.44875],[0.06],[1],[0],[0],[1.2760219000047073],['target'],AN,2024-10-10_18h54.05.602,visualsearchtask,2024.2.1,60.39110487405529,2024-10-10 18h54.30.270239 +0530,
59,0,59,[-0.09875],[-0.24625],[1],[0],[0],[2.018652699996892],['target'],59,0,59,0,113.20696230000613,,,,,10,113.19477710000501,113.20696230000613,113.20696230000613,0.029274200001964346,115.2139152000018,[-0.09875],[-0.24625],[1],[0],[0],[2.018652699996892],['target'],AN,2024-10-10_18h54.05.602,visualsearchtask,2024.2.1,60.39110487405529,2024-10-10 18h54.30.270239 +0530,
60,0,60,[-0.15125],[0.1975],[1],[0],[0],[1.2903893000038806],['target'],60,0,60,0,115.2513367000065,,,,,10,115.23915430000488,115.2513367000065,115.2513367000065,0.025070900002901908,116.52996470000653,[-0.15125],[0.1975],[1],[0],[0],[1.2903893000038806],['target'],AN,2024-10-10_18h54.05.602,visualsearchtask,2024.2.1,60.39110487405529,2024-10-10 18h54.30.270239 +0530,
61,0,61,[0.05],[0.40625],[1],[0],[0],[1.0668493999983184],['target'],61,0,61,0,116.56034660000296,,,,,5,116.54511380000622,116.56034660000296,116.56034660000296,0.014958200001274236,117.61239090000163,[0.05],[0.40625],[1],[0],[0],[1.0668493999983184],['target'],AN,2024-10-10_18h54.05.602,visualsearchtask,2024.2.1,60.39110487405529,2024-10-10 18h54.30.270239 +0530,
62,0,62,[-0.00625],[0.24875],[1],[0],[0],[1.0298521000004257],['target'],62,0,62,0,117.647942100004,,,,,10,117.6357250000001,117.647942100004,117.647942100004,0.02318340000056196,118.66604210000514,[-0.00625],[0.24875],[1],[0],[0],[1.0298521000004257],['target'],AN,2024-10-10_18h54.05.602,visualsearchtask,2024.2.1,60.39110487405529,2024-10-10 18h54.30.270239 +0530,
63,0,63,[-0.07125],[-0.195],[1],[0],[0],[1.3700543999948422],['target'],63,0,63,0,118.70905440000206,,,,,10,118.69124050000391,118.70905440000206,118.70905440000206,0.024908999999752268,120.06170779999957,[-0.07125],[-0.195],[1],[0],[0],[1.3700543999948422],['target'],AN,2024-10-10_18h54.05.602,visualsearchtask,2024.2.1,60.39110487405529,2024-10-10 18h54.30.270239 +0530,
64,0,64,[-0.015],[0.125],[1],[0],[0],[1.155843200001982],['target'],64,0,64,0,120.10040520000621,,,,,10,120.08783670000412,120.10040520000621,120.10040520000621,0.02592700000241166,121.24398790000123,[-0.015],[0.125],[1],[0],[0],[1.155843200001982],['target'],AN,2024-10-10_18h54.05.602,visualsearchtask,2024.2.1,60.39110487405529,2024-10-10 18h54.30.270239 +0530,
65,0,65,[0.13625],[0.3525],[1],[0],[0],[1.308933699998306],['target'],65,0,65,0,121.27945700000419,,,,,10,121.26745230000233,121.27945700000419,121.27945700000419,0.023314200007007457,122.5767174000066,[0.13625],[0.3525],[1],[0],[0],[1.308933699998306],['target'],AN,2024-10-10_18h54.05.602,visualsearchtask,2024.2.1,60.39110487405529,2024-10-10 18h54.30.270239 +0530,
66,0,66,[0.3325],[-0.32375],[1],[0],[0],[1.539432500001567],['target'],66,0,66,0,122.61654180000187,,,,,10,122.60313600000518,122.61654180000187,122.61654180000187,0.026206900001852773,124.14299120000214,[0.3325],[-0.32375],[1],[0],[0],[1.539432500001567],['target'],AN,2024-10-10_18h54.05.602,visualsearchtask,2024.2.1,60.39110487405529,2024-10-10 18h54.30.270239 +0530,
67,0,67,[0.08],[0.06875],[1],[0],[0],[1.143100699999195],['target'],67,0,67,0,124.1780418000053,,,,,10,124.1662706000061,124.1780418000053,124.1780418000053,0.023093099996913224,125.3098159000001,[0.08],[0.06875],[1],[0],[0],[1.143100699999195],['target'],AN,2024-10-10_18h54.05.602,visualsearchtask,2024.2.1,60.39110487405529,2024-10-10 18h54.30.270239 +0530,
68,0,68,[-0.15375],[0.43375],[1],[0],[0],[1.73842130000412],['target'],68,0,68,0,125.34864270000253,,,,,10,125.33624870000494,125.34864270000253,125.34864270000253,0.026179799999226816,127.07510060000641,[-0.15375],[0.43375],[1],[0],[0],[1.73842130000412],['target'],AN,2024-10-10_18h54.05.602,visualsearchtask,2024.2.1,60.39110487405529,2024-10-10 18h54.30.270239 +0530,
69,0,69,[0.475],[-0.41625],[1],[0],[0],[1.6205429000037839],['target'],69,0,69,0,127.10539670000435,,,,,5,127.08735910000541,127.10539670000435,127.10539670000435,0.012101000000257045,128.70832150000206,[0.475],[-0.41625],[1],[0],[0],[1.6205429000037839],['target'],AN,2024-10-10_18h54.05.602,visualsearchtask,2024.2.1,60.39110487405529,2024-10-10 18h54.30.270239 +0530,
70,0,70,[-0.435],[0.38875],[1],[0],[0],[1.8839798999979394],['target'],70,0,70,0,128.75507060000382,,,,,10,128.74006490000465,128.75507060000382,128.75507060000382,0.03159769999911077,130.6244688000006,[-0.435],[0.38875],[1],[0],[0],[1.8839798999979394],['target'],AN,2024-10-10_18h54.05.602,visualsearchtask,2024.2.1,60.39110487405529,2024-10-10 18h54.30.270239 +0530,
71,0,71,[0.0675],[-0.06625],[1],[0],[0],[1.3383584999974119],['target'],71,0,71,0,130.66315730000497,,,,,10,130.65080860000307,130.66315730000497,130.66315730000497,0.026141299997107126,131.98959210000612,[0.0675],[-0.06625],[1],[0],[0],[1.3383584999974119],['target'],AN,2024-10-10_18h54.05.602,visualsearchtask,2024.2.1,60.39110487405529,2024-10-10 18h54.30.270239 +0530,
72,0,72,[-0.02875],[-0.365],[1],[0],[0],[1.7102935000002617],['target'],72,0,72,0,132.02375750000647,,,,,10,132.01213200000348,132.02375750000647,132.02375750000647,0.022352200001478195,133.7228682999994,[-0.02875],[-0.365],[1],[0],[0],[1.7102935000002617],['target'],AN,2024-10-10_18h54.05.602,visualsearchtask,2024.2.1,60.39110487405529,2024-10-10 18h54.30.270239 +0530,
73,0,73,[0.41625],[0.38375],[1],[0],[0],[1.8131224000026123],['target'],73,0,73,0,133.75489650000236,,,,,5,133.74105280000367,133.75489650000236,133.75489650000236,0.01793560000078287,135.55458060000092,[0.41625],[0.38375],[1],[0],[0],[1.8131224000026123],['target'],AN,2024-10-10_18h54.05.602,visualsearchtask,2024.2.1,60.39110487405529,2024-10-10 18h54.30.270239 +0530,
74,0,74,[-0.18875],[-0.08125],[1],[0],[0],[2.199704999999085],['target'],74,0,74,0,135.58602610000526,,,,,5,135.5704315000039,135.58602610000526,135.58602610000526,0.015690899999754038,137.77051100000244,[-0.18875],[-0.08125],[1],[0],[0],[2.199704999999085],['target'],AN,2024-10-10_18h54.05.602,visualsearchtask,2024.2.1,60.39110487405529,2024-10-10 18h54.30.270239 +0530,
75,0,75,[0.47375],[-0.24625],[1],[0],[0],[1.6999804000006407],['target'],75,0,75,0,137.80102950000582,,,,,5,137.78579880000325,137.80102950000582,137.80102950000582,0.015138100003241561,139.48614100000123,[0.47375],[-0.24625],[1],[0],[0],[1.6999804000006407],['target'],AN,2024-10-10_18h54.05.602,visualsearchtask,2024.2.1,60.39110487405529,2024-10-10 18h54.30.270239 +0530,
76,0,76,[-0.2025],[0.01625],[1],[0],[0],[1.3837938999931794],['target'],76,0,76,0,139.51680370000395,,,,,5,139.5013134000037,139.51680370000395,139.51680370000395,0.014994599994679447,140.8854541000037,[-0.2025],[0.01625],[1],[0],[0],[1.3837938999931794],['target'],AN,2024-10-10_18h54.05.602,visualsearchtask,2024.2.1,60.39110487405529,2024-10-10 18h54.30.270239 +0530,
77,0,77,[0.0025],[0.35625],[1],[0],[0],[1.2433787999980268],['target'],77,0,77,0,140.92102510000404,,,,,10,140.908336600005,140.92102510000404,140.92102510000404,0.022754500001610722,142.15214720000222,[0.0025],[0.35625],[1],[0],[0],[1.2433787999980268],['target'],AN,2024-10-10_18h54.05.602,visualsearchtask,2024.2.1,60.39110487405529,2024-10-10 18h54.30.270239 +0530,
78,0,78,[0.19875],[-0.08875],[1],[0],[0],[1.2872386000017286],['target'],78,0,78,0,142.18328960000508,,,,,5,142.16422520000197,142.18328960000508,142.18328960000508,0.01186500000039814,143.451870900004,[0.19875],[-0.08875],[1],[0],[0],[1.2872386000017286],['target'],AN,2024-10-10_18h54.05.602,visualsearchtask,2024.2.1,60.39110487405529,2024-10-10 18h54.30.270239 +0530,
79,0,79,[0.0425],[-0.31875],[1],[0],[0],[1.2500221000009333],['target'],79,0,79,0,143.48183580000477,,,,,5,143.46684160000586,143.48183580000477,143.48183580000477,0.01481229999626521,144.7172086999999,[0.0425],[-0.31875],[1],[0],[0],[1.2500221000009333],['target'],AN,2024-10-10_18h54.05.602,visualsearchtask,2024.2.1,60.39110487405529,2024-10-10 18h54.30.270239 +0530,
80,0,80,[0.12875],[0.46625],[1],[0],[0],[2.4002889999974286],['target'],80,0,80,0,144.7479250000033,,,,,5,144.73224020000634,144.7479250000033,144.7479250000033,0.014864999997371342,147.1328891000012,[0.12875],[0.46625],[1],[0],[0],[2.4002889999974286],['target'],AN,2024-10-10_18h54.05.602,visualsearchtask,2024.2.1,60.39110487405529,2024-10-10 18h54.30.270239 +0530,
81,0,81,[-0.0475],[-0.12875],[1],[0],[0],[1.8588646999996854],['target'],81,0,81,0,147.1684275000007,,,,,10,147.15628850000212,147.1684275000007,147.1684275000007,0.023235999993630685,149.01552160000574,[-0.0475],[-0.12875],[1],[0],[0],[1.8588646999996854],['target'],AN,2024-10-10_18h54.05.602,visualsearchtask,2024.2.1,60.39110487405529,2024-10-10 18h54.30.270239 +0530,
82,0,82,[0.15],[0.4675],[1],[0],[0],[2.674757099994167],['target'],82,0,82,0,149.05145340000308,,,,,10,149.0392634000018,149.05145340000308,149.05145340000308,0.023606199996720534,151.71444590000465,[0.15],[0.4675],[1],[0],[0],[2.674757099994167],['target'],AN,2024-10-10_18h54.05.602,visualsearchtask,2024.2.1,60.39110487405529,2024-10-10 18h54.30.270239 +0530,
83,0,83,[0.06375],[0.06375],[1],[0],[0],[1.2362461000011535],['target'],83,0,83,0,151.74522300000535,,,,,5,151.72716930000024,151.74522300000535,151.74522300000535,0.01257400000031339,152.96378560000448,[0.06375],[0.06375],[1],[0],[0],[1.2362461000011535],['target'],AN,2024-10-10_18h54.05.602,visualsearchtask,2024.2.1,60.39110487405529,2024-10-10 18h54.30.270239 +0530,
84,0,84,[-0.20875],[-0.37],[1],[0],[0],[1.4208360999982688],['target'],84,0,84,0,152.9946312000029,,,,,5,152.9754463000063,152.9946312000029,152.9946312000029,0.011528299997735303,154.39663810000638,[-0.20875],[-0.37],[1],[0],[0],[1.4208360999982688],['target'],AN,2024-10-10_18h54.05.602,visualsearchtask,2024.2.1,60.39110487405529,2024-10-10 18h54.30.270239 +0530,
85,0,85,[0.08875],[-0.04375],[1],[0],[0],[1.0503040000039618],['target'],85,0,85,0,154.42762580000272,,,,,5,154.41196940000373,154.42762580000272,154.42762580000272,0.015163100004428998,155.46264710000105,[0.08875],[-0.04375],[1],[0],[0],[1.0503040000039618],['target'],AN,2024-10-10_18h54.05.602,visualsearchtask,2024.2.1,60.39110487405529,2024-10-10 18h54.30.270239 +0530,
86,0,86,[-0.02375],[0.34625],[1],[0],[0],[1.1583307000037166],['target'],86,0,86,0,155.49885090000316,,,,,10,155.48654460000398,155.49885090000316,155.49885090000316,0.02375739999843063,156.64537299999938,[-0.02375],[0.34625],[1],[0],[0],[1.1583307000037166],['target'],AN,2024-10-10_18h54.05.602,visualsearchtask,2024.2.1,60.39110487405529,2024-10-10 18h54.30.270239 +0530,
87,0,87,[0.4275],[-0.02375],[1],[0],[0],[1.5543799000006402],['target'],87,0,87,0,156.67594570000074,,,,,5,156.65742200000386,156.67594570000074,156.67594570000074,0.011888399996678345,158.21219470000506,[0.4275],[-0.02375],[1],[0],[0],[1.5543799000006402],['target'],AN,2024-10-10_18h54.05.602,visualsearchtask,2024.2.1,60.39110487405529,2024-10-10 18h54.30.270239 +0530,
88,0,88,[0.03625],[-0.105],[1],[0],[0],[0.7422213999961969],[None],88,0,88,0,158.24726340000052,,,,,10,158.23496540000633,158.24726340000052,158.24726340000052,0.022611100001086015,158.9775160000063,[0.03625],[-0.105],[1],[0],[0],[0.7422213999961969],[None],AN,2024-10-10_18h54.05.602,visualsearchtask,2024.2.1,60.39110487405529,2024-10-10 18h54.30.270239 +0530,
89,0,89,[-0.19375],[-0.16],[1],[0],[0],[1.2007169999997132],['target'],89,0,89,0,159.00850410000567,,,,,5,158.9928871000011,159.00850410000567,159.00850410000567,0.015201800000795629,160.19400220000534,[-0.19375],[-0.16],[1],[0],[0],[1.2007169999997132],['target'],AN,2024-10-10_18h54.05.602,visualsearchtask,2024.2.1,60.39110487405529,2024-10-10 18h54.30.270239 +0530,
90,0,90,[0.24125],[-0.31625],[1],[0],[0],[1.3206005999963963],['target'],90,0,90,0,160.22462260000611,,,,,5,160.20634530000098,160.22462260000611,160.22462260000611,0.012177899996459018,161.52730750000046,[0.24125],[-0.31625],[1],[0],[0],[1.3206005999963963],['target'],AN,2024-10-10_18h54.05.602,visualsearchtask,2024.2.1,60.39110487405529,2024-10-10 18h54.30.270239 +0530,
91,0,91,[0.4675],[-0.02375],[1],[0],[0],[0.9697161000003689],['target'],91,0,91,0,161.55745070000557,,,,,5,161.53921470000205,161.55745070000557,161.55745070000557,0.011774899998272303,162.50929290000204,[0.4675],[-0.02375],[1],[0],[0],[0.9697161000003689],['target'],AN,2024-10-10_18h54.05.602,visualsearchtask,2024.2.1,60.39110487405529,2024-10-10 18h54.30.270239 +0530,
92,0,92,[-0.3275],[0.21375],[1],[0],[0],[1.737344299996039],['target'],92,0,92,0,162.54025950000505,,,,,5,162.52185250000184,162.54025950000505,162.54025950000505,0.012409800001478288,164.25966250000056,[-0.3275],[0.21375],[1],[0],[0],[1.737344299996039],['target'],AN,2024-10-10_18h54.05.602,visualsearchtask,2024.2.1,60.39110487405529,2024-10-10 18h54.30.270239 +0530,
93,0,93,[0.48625],[0.1425],[1],[0],[0],[1.6027439000026789],['target'],93,0,93,0,164.28960050000023,,,,,5,164.27218330000323,164.28960050000023,164.28960050000023,0.012376200000289828,165.87527680000494,[0.48625],[0.1425],[1],[0],[0],[1.6027439000026789],['target'],AN,2024-10-10_18h54.05.602,visualsearchtask,2024.2.1,60.39110487405529,2024-10-10 18h54.30.270239 +0530,
94,0,94,[-0.2075],[-0.2675],[1],[0],[0],[1.3701475999987451],['target'],94,0,94,0,165.90594129999954,,,,,5,165.88728810000612,165.90594129999954,165.90594129999954,0.011879199999384582,167.25782410000102,[-0.2075],[-0.2675],[1],[0],[0],[1.3701475999987451],['target'],AN,2024-10-10_18h54.05.602,visualsearchtask,2024.2.1,60.39110487405529,2024-10-10 18h54.30.270239 +0530,
95,0,95,[-0.10625],[0.04125],[1],[0],[0],[1.0394118999975035],['target'],95,0,95,0,167.29649630000495,,,,,10,167.2838613000058,167.29649630000495,167.29649630000495,0.02586640000663465,168.32363880000048,[-0.10625],[0.04125],[1],[0],[0],[1.0394118999975035],['target'],AN,2024-10-10_18h54.05.602,visualsearchtask,2024.2.1,60.39110487405529,2024-10-10 18h54.30.270239 +0530,
96,0,96,[-0.46375],[-0.2775],[1],[0],[0],[1.3236089000056381],['target'],96,0,96,0,168.36163350000425,,,,,10,168.3493793000016,168.36163350000425,168.36163350000425,0.02553790000092704,169.6733991000001,[-0.46375],[-0.2775],[1],[0],[0],[1.3236089000056381],['target'],AN,2024-10-10_18h54.05.602,visualsearchtask,2024.2.1,60.39110487405529,2024-10-10 18h54.30.270239 +0530,
97,0,97,[-0.49125],[-0.16],[1],[0],[0],[1.0202538000012282],['target'],97,0,97,0,169.70408310000494,,,,,5,169.6854136000038,169.70408310000494,169.70408310000494,0.011835099998279475,170.7060083000033,[-0.49125],[-0.16],[1],[0],[0],[1.0202538000012282],['target'],AN,2024-10-10_18h54.05.602,visualsearchtask,2024.2.1,60.39110487405529,2024-10-10 18h54.30.270239 +0530,
98,0,98,[-0.3075],[0.155],[1],[0],[0],[1.2015051999987918],['target'],98,0,98,0,170.73682230000122,,,,,5,170.7207669000054,170.73682230000122,170.73682230000122,0.014602800001739524,171.92268250000052,[-0.3075],[0.155],[1],[0],[0],[1.2015051999987918],['target'],AN,2024-10-10_18h54.05.602,visualsearchtask,2024.2.1,60.39110487405529,2024-10-10 18h54.30.270239 +0530,
99,0,99,[-0.11375],[-0.1025],[1],[0],[0],[1.2196352999962983],['target'],99,0,99,0,171.95322780000424,,,,,5,171.93494070000452,171.95322780000424,171.95322780000424,0.012127499998314306,173.1549887000001,[-0.11375],[-0.1025],[1],[0],[0],[1.2196352999962983],['target'],AN,2024-10-10_18h54.05.602,visualsearchtask,2024.2.1,60.39110487405529,2024-10-10 18h54.30.270239 +0530,
100,0,100,[-0.37375],[0.10375],[1],[0],[0],[1.2384588999993866],['target'],100,0,100,0,173.18565330000274,,,,,5,173.16702730000543,173.18565330000274,173.18565330000274,0.011912699999811593,174.40592450000258,[-0.37375],[0.10375],[1],[0],[0],[1.2384588999993866],['target'],AN,2024-10-10_18h54.05.602,visualsearchtask,2024.2.1,60.39110487405529,2024-10-10 18h54.30.270239 +0530,
101,0,101,[0.4425],[0.045],[1],[0],[0],[1.5031070999975782],['target'],101,0,101,0,174.43572160000622,,,,,5,174.41834930000186,174.43572160000622,174.43572160000622,0.012310500002058689,175.92189820000203,[0.4425],[0.045],[1],[0],[0],[1.5031070999975782],['target'],AN,2024-10-10_18h54.05.602,visualsearchtask,2024.2.1,60.39110487405529,2024-10-10 18h54.30.270239 +0530,
102,0,102,[0.2975],[-0.18875],[1],[0],[0],[1.2176003999993554],['target'],102,0,102,0,175.96953930000018,,,,,10,175.95190320000256,175.96953930000018,175.96953930000018,0.029847400001017377,177.16988380000112,[0.2975],[-0.18875],[1],[0],[0],[1.2176003999993554],['target'],AN,2024-10-10_18h54.05.602,visualsearchtask,2024.2.1,60.39110487405529,2024-10-10 18h54.30.270239 +0530,
103,0,103,[-0.16],[0.325],[1],[0],[0],[1.6174552000011317],['target'],103,0,103,0,177.20058700000664,,,,,5,177.1847826000012,177.20058700000664,177.20058700000664,0.014702200001920573,178.80261210000026,[-0.16],[0.325],[1],[0],[0],[1.6174552000011317],['target'],AN,2024-10-10_18h54.05.602,visualsearchtask,2024.2.1,60.39110487405529,2024-10-10 18h54.30.270239 +0530,
104,0,104,[-0.27125],[-0.1325],[1],[0],[0],[1.2705881000001682],['target'],104,0,104,0,178.83314370000153,,,,,5,178.81458700000076,178.83314370000153,178.83314370000153,0.011838600003102329,180.0855695000064,[-0.27125],[-0.1325],[1],[0],[0],[1.2705881000001682],['target'],AN,2024-10-10_18h54.05.602,visualsearchtask,2024.2.1,60.39110487405529,2024-10-10 18h54.30.270239 +0530,
105,0,105,[0.14875],[0.01125],[1],[0],[0],[1.2569081999972695],['target'],105,0,105,0,180.12311950000003,,,,,10,180.11090720000357,180.12311950000003,180.12311950000003,0.025178299998515286,181.36821559999953,[0.14875],[0.01125],[1],[0],[0],[1.2569081999972695],['target'],AN,2024-10-10_18h54.05.602,visualsearchtask,2024.2.1,60.39110487405529,2024-10-10 18h54.30.270239 +0530,
106,0,106,[-0.34625],[-0.1375],[1],[0],[0],[1.3728020999988075],['target'],106,0,106,0,181.40617639999982,,,,,10,181.394280600005,181.40617639999982,181.40617639999982,0.025869900004181545,182.76745360000496,[-0.34625],[-0.1375],[1],[0],[0],[1.3728020999988075],['target'],AN,2024-10-10_18h54.05.602,visualsearchtask,2024.2.1,60.39110487405529,2024-10-10 18h54.30.270239 +0530,
107,0,107,[-0.395],[-0.29375],[1],[0],[0],[1.4037941999995383],['target'],107,0,107,0,182.79823690000194,,,,,5,182.77976130000025,182.79823690000194,182.79823690000194,0.012148800000431947,184.18390850000287,[-0.395],[-0.29375],[1],[0],[0],[1.4037941999995383],['target'],AN,2024-10-10_18h54.05.602,visualsearchtask,2024.2.1,60.39110487405529,2024-10-10 18h54.30.270239 +0530,
108,0,108,[0.13375],[0.36625],[1],[0],[0],[1.3677841000026092],['target'],108,0,108,0,184.2145967000033,,,,,5,184.19893560000492,184.2145967000033,184.2145967000033,0.014810200002102647,185.56716600000073,[0.13375],[0.36625],[1],[0],[0],[1.3677841000026092],['target'],AN,2024-10-10_18h54.05.602,visualsearchtask,2024.2.1,60.39110487405529,2024-10-10 18h54.30.270239 +0530,
109,0,109,[0.18],[-0.06],[1],[0],[0],[0.8727476999993087],[None],109,0,109,0,185.60555600000225,,,,,10,185.59299150000152,185.60555600000225,185.60555600000225,0.025662100000772625,186.46608630000264,[0.18],[-0.06],[1],[0],[0],[0.8727476999993087],[None],AN,2024-10-10_18h54.05.602,visualsearchtask,2024.2.1,60.39110487405529,2024-10-10 18h54.30.270239 +0530,
110,0,110,[-0.175],[-0.4625],[1],[0],[0],[1.4669778000024962],['target'],110,0,110,0,186.49726229999942,,,,,5,186.48143800000253,186.49726229999942,186.49726229999942,0.015147500002058223,187.9487814000022,[-0.175],[-0.4625],[1],[0],[0],[1.4669778000024962],['target'],AN,2024-10-10_18h54.05.602,visualsearchtask,2024.2.1,60.39110487405529,2024-10-10 18h54.30.270239 +0530,
111,0,111,[-0.32125],[-0.315],[1],[0],[0],[1.4419036000035703],['target'],111,0,111,0,187.98539300000266,,,,,10,187.97226210000372,187.98539300000266,187.98539300000266,0.023346900001342874,189.4144790000064,[-0.32125],[-0.315],[1],[0],[0],[1.4419036000035703],['target'],AN,2024-10-10_18h54.05.602,visualsearchtask,2024.2.1,60.39110487405529,2024-10-10 18h54.30.270239 +0530,
112,0,112,[-0.06375],[-0.13125],[1],[0],[0],[1.237141799996607],['target'],112,0,112,0,189.44607640000322,,,,,5,189.42683010000474,189.44607640000322,189.44607640000322,0.012198299998999573,190.66439990000072,[-0.06375],[-0.13125],[1],[0],[0],[1.237141799996607],['target'],AN,2024-10-10_18h54.05.602,visualsearchtask,2024.2.1,60.39110487405529,2024-10-10 18h54.30.270239 +0530,
113,0,113,[0.39625],[-0.40875],[1],[0],[0],[1.6413692999994964],['target'],113,0,113,0,190.70029780000186,,,,,10,190.68849480000063,190.70029780000186,190.70029780000186,0.023933999997098,192.3302146999995,[0.39625],[-0.40875],[1],[0],[0],[1.6413692999994964],['target'],AN,2024-10-10_18h54.05.602,visualsearchtask,2024.2.1,60.39110487405529,2024-10-10 18h54.30.270239 +0530,
114,0,114,[0.0275],[0.4775],[1],[0],[0],[2.6164357000016025],['target'],114,0,114,0,192.36069320000388,,,,,5,192.34537470000214,192.36069320000388,192.36069320000388,0.014964100002544,194.9621710000065,[0.0275],[0.4775],[1],[0],[0],[2.6164357000016025],['target'],AN,2024-10-10_18h54.05.602,visualsearchtask,2024.2.1,60.39110487405529,2024-10-10 18h54.30.270239 +0530,
115,0,115,[0.08375],[0.05],[1],[0],[0],[1.5171622999987449],['target'],115,0,115,0,194.9927561000004,,,,,5,194.9773908999996,194.9927561000004,194.9927561000004,0.015055099996970966,196.49492050000117,[0.08375],[0.05],[1],[0],[0],[1.5171622999987449],['target'],AN,2024-10-10_18h54.05.602,visualsearchtask,2024.2.1,60.39110487405529,2024-10-10 18h54.30.270239 +0530,
116,0,116,[-0.35625],[0.37375],[1],[0],[0],[1.8078676000004634],['target'],116,0,116,0,196.5315883000003,,,,,10,196.5192565000034,196.5315883000003,196.5315883000003,0.024213600001530722,198.3275094000055,[-0.35625],[0.37375],[1],[0],[0],[1.8078676000004634],['target'],AN,2024-10-10_18h54.05.602,visualsearchtask,2024.2.1,60.39110487405529,2024-10-10 18h54.30.270239 +0530,
117,0,117,[0.0625],[-0.44875],[1],[0],[0],[1.4198899999973946],['target'],117,0,117,0,198.35806109999976,,,,,5,198.3398240000024,198.35806109999976,198.35806109999976,0.012086299997463357,199.76011049999943,[0.0625],[-0.44875],[1],[0],[0],[1.4198899999973946],['target'],AN,2024-10-10_18h54.05.602,visualsearchtask,2024.2.1,60.39110487405529,2024-10-10 18h54.30.270239 +0530,
118,0,118,[0.2975],[-0.3175],[1],[0],[0],[1.1508405999993556],['target'],118,0,118,0,199.79089329999988,,,,,5,199.77535300000454,199.79089329999988,199.79089329999988,0.015081000005011447,200.9265280000036,[0.2975],[-0.3175],[1],[0],[0],[1.1508405999993556],['target'],AN,2024-10-10_18h54.05.602,visualsearchtask,2024.2.1,60.39110487405529,2024-10-10 18h54.30.270239 +0530,
119,0,119,[-0.0875],[0.2875],[1],[0],[0],[1.5268848999985494],['target'],119,0,119,0,200.9617967000013,,,,,10,200.94958080000652,200.9617967000013,200.9617967000013,0.022913900000276044,202.47684510000545,[-0.0875],[0.2875],[1],[0],[0],[1.5268848999985494],['target'],AN,2024-10-10_18h54.05.602,visualsearchtask,2024.2.1,60.39110487405529,2024-10-10 18h54.30.270239 +0530,
120,0,120,[-0.035],[-0.25],[1],[0],[0],[1.3743964999957825],['target'],120,0,120,0,202.51277510000364,,,,,10,202.50073810000322,202.51277510000364,202.51277510000364,0.023738900003081653,203.87549489999947,[-0.035],[-0.25],[1],[0],[0],[1.3743964999957825],['target'],AN,2024-10-10_18h54.05.602,visualsearchtask,2024.2.1,60.39110487405529,2024-10-10 18h54.30.270239 +0530,
121,0,121,[0.1225],[-0.01],[1],[0],[0],[1.134095100002014],['target'],121,0,121,0,203.90596170000208,,,,,5,203.8905359000055,203.90596170000208,203.90596170000208,0.014831799999228679,205.02499280000484,[0.1225],[-0.01],[1],[0],[0],[1.134095100002014],['target'],AN,2024-10-10_18h54.05.602,visualsearchtask,2024.2.1,60.39110487405529,2024-10-10 18h54.30.270239 +0530,
122,0,122,[-0.1],[0.19],[1],[0],[0],[1.4172038000033353],['target'],122,0,122,0,205.0554881000062,,,,,5,205.03993840000476,205.0554881000062,205.0554881000062,0.014783700004045386,206.45749340000475,[-0.1],[0.19],[1],[0],[0],[1.4172038000033353],['target'],AN,2024-10-10_18h54.05.602,visualsearchtask,2024.2.1,60.39110487405529,2024-10-10 18h54.30.270239 +0530,
123,0,123,[0.1475],[-0.45875],[1],[0],[0],[2.4387822999997297],['target'],123,0,123,0,206.49575440000626,,,,,10,206.4839587000024,206.49575440000626,206.49575440000626,0.026305500003218185,208.92306920000556,[0.1475],[-0.45875],[1],[0],[0],[2.4387822999997297],['target'],AN,2024-10-10_18h54.05.602,visualsearchtask,2024.2.1,60.39110487405529,2024-10-10 18h54.30.270239 +0530,
124,0,124,[0.43375],[-0.255],[1],[0],[0],[1.6056949999983772],['target'],124,0,124,0,208.96194920000562,,,,,10,208.94971040000382,208.96194920000562,208.96194920000562,0.02642309999646386,210.5558921000047,[0.43375],[-0.255],[1],[0],[0],[1.6056949999983772],['target'],AN,2024-10-10_18h54.05.602,visualsearchtask,2024.2.1,60.39110487405529,2024-10-10 18h54.30.270239 +0530,
125,0,125,[0.45875],[-0.2825],[1],[0],[0],[1.903040699995472],['target'],125,0,125,0,210.5867098000017,,,,,5,210.56821820000187,210.5867098000017,210.5867098000017,0.012146599998231977,212.4716269000055,[0.45875],[-0.2825],[1],[0],[0],[1.903040699995472],['target'],AN,2024-10-10_18h54.05.602,visualsearchtask,2024.2.1,60.39110487405529,2024-10-10 18h54.30.270239 +0530,
126,0,126,[0.2675],[-0.035],[1],[0],[0],[1.3420570000016596],['target'],126,0,126,0,212.50679189999937,,,,,10,212.4949506000048,212.50679189999937,212.50679189999937,0.023200800002086908,213.83731870000338,[0.2675],[-0.035],[1],[0],[0],[1.3420570000016596],['target'],AN,2024-10-10_18h54.05.602,visualsearchtask,2024.2.1,60.39110487405529,2024-10-10 18h54.30.270239 +0530,
127,0,127,[-0.22],[0.18375],[1],[0],[0],[1.9867064999998547],['target'],127,0,127,0,213.86900109999988,,,,,5,213.84968389999995,213.86900109999988,213.86900109999988,0.012202099998830818,215.83677150000585,[-0.22],[0.18375],[1],[0],[0],[1.9867064999998547],['target'],AN,2024-10-10_18h54.05.602,visualsearchtask,2024.2.1,60.39110487405529,2024-10-10 18h54.30.270239 +0530,
128,0,128,[-0.415],[-0.36625],[1],[0],[0],[2.1168655999936163],['target'],128,0,128,0,215.86828270000115,,,,,5,215.85188390000258,215.86828270000115,215.86828270000115,0.014953799996874295,217.9691837000064,[-0.415],[-0.36625],[1],[0],[0],[2.1168655999936163],['target'],AN,2024-10-10_18h54.05.602,visualsearchtask,2024.2.1,60.39110487405529,2024-10-10 18h54.30.270239 +0530,
129,0,129,[0.05],[0.46875],[1],[0],[0],[2.7532802000059746],['target'],129,0,129,0,217.99987970000075,,,,,5,217.98182260000613,217.99987970000075,217.99987970000075,0.01252359999489272,220.73554570000124,[0.05],[0.46875],[1],[0],[0],[2.7532802000059746],['target'],AN,2024-10-10_18h54.05.602,visualsearchtask,2024.2.1,60.39110487405529,2024-10-10 18h54.30.270239 +0530,
130,0,130,[-0.0425],[-0.15],[1],[0],[0],[1.407489400000486],['target'],130,0,130,0,220.7720502000011,,,,,10,220.7594140000001,220.7720502000011,220.7720502000011,0.023735700000543147,222.16726539999945,[-0.0425],[-0.15],[1],[0],[0],[1.407489400000486],['target'],AN,2024-10-10_18h54.05.602,visualsearchtask,2024.2.1,60.39110487405529,2024-10-10 18h54.30.270239 +0530,
131,0,131,[-0.20125],[-0.33],[1],[0],[0],[2.1706986999997753],['target'],131,0,131,0,222.1976824000012,,,,,5,222.17883620000066,222.1976824000012,222.1976824000012,0.011419099995691795,224.34990500000276,[-0.20125],[-0.33],[1],[0],[0],[2.1706986999997753],['target'],AN,2024-10-10_18h54.05.602,visualsearchtask,2024.2.1,60.39110487405529,2024-10-10 18h54.30.270239 +0530,
132,0,132,[-0.1725],[0.35],[1],[0],[0],[2.666600999997172],['target'],132,0,132,0,224.38072470000043,,,,,5,224.36492260000523,224.38072470000043,224.38072470000043,0.014859399998385925,227.03187510000134,[-0.1725],[0.35],[1],[0],[0],[2.666600999997172],['target'],AN,2024-10-10_18h54.05.602,visualsearchtask,2024.2.1,60.39110487405529,2024-10-10 18h54.30.270239 +0530,
133,0,133,[0.17125],[0.27875],[1],[0],[0],[2.8892108000000007],['target'],133,0,133,0,227.06991050000215,,,,,10,227.05804519999947,227.06991050000215,227.06991050000215,0.02599010000267299,229.94768820000172,[0.17125],[0.27875],[1],[0],[0],[2.8892108000000007],['target'],AN,2024-10-10_18h54.05.602,visualsearchtask,2024.2.1,60.39110487405529,2024-10-10 18h54.30.270239 +0530,
134,0,134,[-0.23875],[0.20125],[1],[0],[0],[1.3037947999982862],['target'],134,0,134,0,229.97813610000594,,,,,5,229.9607576000053,229.97813610000594,229.97813610000594,0.012915800005430356,231.26492950000102,[-0.23875],[0.20125],[1],[0],[0],[1.3037947999982862],['target'],AN,2024-10-10_18h54.05.602,visualsearchtask,2024.2.1,60.39110487405529,2024-10-10 18h54.30.270239 +0530,
135,0,135,[-0.06],[-0.21625],[1],[0],[0],[1.237258599998313],['target'],135,0,135,0,231.29405580000457,,,,,5,231.27680520000285,231.29405580000457,231.29405580000457,0.011727100005373359,232.51460560000123,[-0.06],[-0.21625],[1],[0],[0],[1.237258599998313],['target'],AN,2024-10-10_18h54.05.602,visualsearchtask,2024.2.1,60.39110487405529,2024-10-10 18h54.30.270239 +0530,
136,0,136,[-0.32125],[-0.38625],[1],[0],[0],[1.2842798999990919],['target'],136,0,136,0,232.56028250000236,,,,,10,232.54493880000518,232.56028250000236,232.56028250000236,0.030137900001136586,233.82975330000045,[-0.32125],[-0.38625],[1],[0],[0],[1.2842798999990919],['target'],AN,2024-10-10_18h54.05.602,visualsearchtask,2024.2.1,60.39110487405529,2024-10-10 18h54.30.270239 +0530,
137,0,137,[0.03125],[0.14125],[1],[0],[0],[1.5342627999998513],['target'],137,0,137,0,233.87293219999992,,,,,10,233.86047400000098,233.87293219999992,233.87293219999992,0.03049720000126399,235.39506610000535,[0.03125],[0.14125],[1],[0],[0],[1.5342627999998513],['target'],AN,2024-10-10_18h54.05.602,visualsearchtask,2024.2.1,60.39110487405529,2024-10-10 18h54.30.270239 +0530,
138,0,138,[0.25125],[0.33125],[1],[0],[0],[2.200741599997855],['target'],138,0,138,0,235.42601170000125,,,,,5,235.40983330000017,235.42601170000125,235.42601170000125,0.014554700006556232,237.61094860000594,[0.25125],[0.33125],[1],[0],[0],[2.200741599997855],['target'],AN,2024-10-10_18h54.05.602,visualsearchtask,2024.2.1,60.39110487405529,2024-10-10 18h54.30.270239 +0530,
139,0,139,[-0.07375],[-0.3075],[1],[0],[0],[1.437463000002026],['target'],139,0,139,0,237.64131220000127,,,,,5,237.62260770000285,237.64131220000127,237.64131220000127,0.011530299998412374,239.06041430000187,[-0.07375],[-0.3075],[1],[0],[0],[1.437463000002026],['target'],AN,2024-10-10_18h54.05.602,visualsearchtask,2024.2.1,60.39110487405529,2024-10-10 18h54.30.270239 +0530,
140,0,140,[-0.46875],[0.2025],[1],[0],[0],[1.3176122000004398],['target'],140,0,140,0,239.09088760000304,,,,,5,239.07523810000566,239.09088760000304,239.09088760000304,0.014652800004114397,240.39320430000225,[-0.46875],[0.2025],[1],[0],[0],[1.3176122000004398],['target'],AN,2024-10-10_18h54.05.602,visualsearchtask,2024.2.1,60.39110487405529,2024-10-10 18h54.30.270239 +0530,
141,0,141,[0.21875],[-0.33375],[1],[0],[0],[2.972358200000599],['target'],141,0,141,0,240.43127160000586,,,,,10,240.4190654000049,240.43127160000586,240.43127160000586,0.025696400000015274,243.39187220000167,[0.21875],[-0.33375],[1],[0],[0],[2.972358200000599],['target'],AN,2024-10-10_18h54.05.602,visualsearchtask,2024.2.1,60.39110487405529,2024-10-10 18h54.30.270239 +0530,
142,0,142,[0.17125],[0.175],[1],[0],[0],[1.5428618000005372],['target'],142,0,142,0,243.4268641000017,,,,,10,243.41454640000302,243.4268641000017,243.4268641000017,0.02248400000098627,244.95782930000132,[0.17125],[0.175],[1],[0],[0],[1.5428618000005372],['target'],AN,2024-10-10_18h54.05.602,visualsearchtask,2024.2.1,60.39110487405529,2024-10-10 18h54.30.270239 +0530,
143,0,143,[0.41625],[-0.3475],[1],[0],[0],[1.403410500002792],['target'],143,0,143,0,244.98851370000193,,,,,5,244.96965250000358,244.98851370000193,244.98851370000193,0.011652699999103788,246.3734173000048,[0.41625],[-0.3475],[1],[0],[0],[1.403410500002792],['target'],AN,2024-10-10_18h54.05.602,visualsearchtask,2024.2.1,60.39110487405529,2024-10-10 18h54.30.270239 +0530,
144,0,144,[0.3725],[0.1525],[1],[0],[0],[2.2895113000049605],['target'],144,0,144,0,246.41207090000535,,,,,10,246.39949830000114,246.41207090000535,246.41207090000535,0.02590059999783989,248.68939750000573,[0.3725],[0.1525],[1],[0],[0],[2.2895113000049605],['target'],AN,2024-10-10_18h54.05.602,visualsearchtask,2024.2.1,60.39110487405529,2024-10-10 18h54.30.270239 +0530,
145,0,145,[0.39375],[-0.385],[1],[0],[0],[1.2222332000019378],['target'],145,0,145,0,248.72957670000324,,,,,10,248.71593470000516,248.72957670000324,248.72957670000324,0.026332000001275446,249.93851020000147,[0.39375],[-0.385],[1],[0],[0],[1.2222332000019378],['target'],AN,2024-10-10_18h54.05.602,visualsearchtask,2024.2.1,60.39110487405529,2024-10-10 18h54.30.270239 +0530,
146,0,146,[0.38125],[-0.26875],[1],[0],[0],[1.9038234000036027],['target'],146,0,146,0,249.9698542000042,,,,,5,249.9504659000013,249.9698542000042,249.9698542000042,0.011798599996836856,251.85463380000147,[0.38125],[-0.26875],[1],[0],[0],[1.9038234000036027],['target'],AN,2024-10-10_18h54.05.602,visualsearchtask,2024.2.1,60.39110487405529,2024-10-10 18h54.30.270239 +0530,
147,0,147,[-0.34625],[-0.1175],[1],[0],[0],[1.6835752999977558],['target'],147,0,147,0,251.88535300000513,,,,,5,251.86972680000326,251.88535300000513,251.88535300000513,0.014930999997886829,253.55373520000285,[-0.34625],[-0.1175],[1],[0],[0],[1.6835752999977558],['target'],AN,2024-10-10_18h54.05.602,visualsearchtask,2024.2.1,60.39110487405529,2024-10-10 18h54.30.270239 +0530,
148,0,148,[-0.04625],[0.0225],[1],[0],[0],[1.8708432000057655],['target'],148,0,148,0,253.5849834000037,,,,,5,253.56535490000533,253.5849834000037,253.5849834000037,0.011482200003229082,255.43660870000167,[-0.04625],[0.0225],[1],[0],[0],[1.8708432000057655],['target'],AN,2024-10-10_18h54.05.602,visualsearchtask,2024.2.1,60.39110487405529,2024-10-10 18h54.30.270239 +0530,
149,0,149,[-0.0825],[-0.2025],[1],[0],[0],[1.3412627000070643],['target'],149,0,149,0,255.47211270000116,,,,,10,255.46044249999977,255.47211270000116,255.47211270000116,0.023693299997830763,256.8020777000056,[-0.0825],[-0.2025],[1],[0],[0],[1.3412627000070643],['target'],AN,2024-10-10_18h54.05.602,visualsearchtask,2024.2.1,60.39110487405529,2024-10-10 18h54.30.270239 +0530,
150,0,150,[0.04625],[-0.2875],[1],[0],[0],[1.1765230999953928],['target'],150,0,150,0,256.8375398000062,,,,,10,256.8253649000035,256.8375398000062,256.8375398000062,0.023088899994036183,258.00224359999993,[0.04625],[-0.2875],[1],[0],[0],[1.1765230999953928],['target'],AN,2024-10-10_18h54.05.602,visualsearchtask,2024.2.1,60.39110487405529,2024-10-10 18h54.30.270239 +0530,
151,0,151,[-0.14125],[0.2525],[1],[0],[0],[1.775421300000744],['target'],151,0,151,0,258.03745970000455,,,,,10,258.0257120000024,258.03745970000455,258.03745970000455,0.023317300001508556,259.8015008000002,[-0.14125],[0.2525],[1],[0],[0],[1.775421300000744],['target'],AN,2024-10-10_18h54.05.602,visualsearchtask,2024.2.1,60.39110487405529,2024-10-10 18h54.30.270239 +0530,
152,0,152,[-0.02375],[-0.1625],[1],[0],[0],[1.342107999997097],['target'],152,0,152,0,259.83691340000223,,,,,10,259.82492260000436,259.83691340000223,259.83691340000223,0.023273899998457637,261.16743130000395,[-0.02375],[-0.1625],[1],[0],[0],[1.342107999997097],['target'],AN,2024-10-10_18h54.05.602,visualsearchtask,2024.2.1,60.39110487405529,2024-10-10 18h54.30.270239 +0530,
153,0,153,[0.02875],[0.34625],[1],[0],[0],[2.0092156999962754],['target'],153,0,153,0,261.20283920000657,,,,,10,261.1898991000053,261.20283920000657,261.20283920000657,0.022310899999865796,263.1994737000059,[0.02875],[0.34625],[1],[0],[0],[2.0092156999962754],['target'],AN,2024-10-10_18h54.05.602,visualsearchtask,2024.2.1,60.39110487405529,2024-10-10 18h54.30.270239 +0530,
154,0,154,[-0.3875],[-0.2675],[1],[0],[0],[2.7397408000033465],['target'],154,0,154,0,263.23753370000486,,,,,10,263.2255529000031,263.23753370000486,263.23753370000486,0.02587570000468986,265.9656357000058,[-0.3875],[-0.2675],[1],[0],[0],[2.7397408000033465],['target'],AN,2024-10-10_18h54.05.602,visualsearchtask,2024.2.1,60.39110487405529,2024-10-10 18h54.30.270239 +0530,
155,0,155,[0.44875],[0.4175],[1],[0],[0],[1.6338399999949615],['target'],155,0,155,0,265.995585800003,,,,,5,265.9802256000039,265.995585800003,265.995585800003,0.014394499994523358,267.6144301000022,[0.44875],[0.4175],[1],[0],[0],[1.6338399999949615],['target'],AN,2024-10-10_18h54.05.602,visualsearchtask,2024.2.1,60.39110487405529,2024-10-10 18h54.30.270239 +0530,
156,0,156,[-0.0575],[0.3625],[1],[0],[0],[1.2364345000023604],['target'],156,0,156,0,267.64606790000107,,,,,5,267.6270560000048,267.64606790000107,267.64606790000107,0.012501199998951051,268.8638654000024,[-0.0575],[0.3625],[1],[0],[0],[1.2364345000023604],['target'],AN,2024-10-10_18h54.05.602,visualsearchtask,2024.2.1,60.39110487405529,2024-10-10 18h54.30.270239 +0530,
157,0,157,[-0.47625],[0.11125],[1],[0],[0],[1.492799899999227],['target'],157,0,157,0,268.89934780000476,,,,,10,268.8868339000037,268.89934780000476,268.89934780000476,0.022814099997049198,270.38003700000263,[-0.47625],[0.11125],[1],[0],[0],[1.492799899999227],['target'],AN,2024-10-10_18h54.05.602,visualsearchtask,2024.2.1,60.39110487405529,2024-10-10 18h54.30.270239 +0530,
158,0,158,[-0.3325],[-0.1575],[1],[0],[0],[1.5719731999997748],['target'],158,0,158,0,270.4279328000048,,,,,10,270.40698940000584,270.4279328000048,270.4279328000048,0.026740500004962087,271.97928110000066,[-0.3325],[-0.1575],[1],[0],[0],[1.5719731999997748],['target'],AN,2024-10-10_18h54.05.602,visualsearchtask,2024.2.1,60.39110487405529,2024-10-10 18h54.30.270239 +0530,
159,0,159,[0.4175],[0.46],[1],[0],[0],[1.6870544999983395],['target'],159,0,159,0,272.00997110000026,,,,,5,271.9917009000055,272.00997110000026,272.00997110000026,0.012273799999093171,273.67914480000036,[0.4175],[0.46],[1],[0],[0],[1.6870544999983395],['target'],AN,2024-10-10_18h54.05.602,visualsearchtask,2024.2.1,60.39110487405529,2024-10-10 18h54.30.270239 +0530,
160,0,160,[-0.38375],[0.22875],[1],[0],[0],[1.4553808999989997],['target'],160,0,160,0,273.71765140000207,,,,,10,273.70578920000116,273.71765140000207,273.71765140000207,0.026487199997063726,275.16155840000283,[-0.38375],[0.22875],[1],[0],[0],[1.4553808999989997],['target'],AN,2024-10-10_18h54.05.602,visualsearchtask,2024.2.1,60.39110487405529,2024-10-10 18h54.30.270239 +0530,
161,0,161,[-0.31625],[-0.395],[1],[0],[0],[1.90901880000456],['target'],161,0,161,0,275.19704340000317,,,,,10,275.18488650000654,275.19704340000317,275.19704340000317,0.02317389999370789,277.09430760000396,[-0.31625],[-0.395],[1],[0],[0],[1.90901880000456],['target'],AN,2024-10-10_18h54.05.602,visualsearchtask,2024.2.1,60.39110487405529,2024-10-10 18h54.30.270239 +0530,
162,0,162,[-0.2875],[0.2775],[1],[0],[0],[1.319830100001127],['target'],162,0,162,0,277.1240475000013,,,,,5,277.10639690000244,277.1240475000013,277.1240475000013,0.011946099999477156,278.42657429999963,[-0.2875],[0.2775],[1],[0],[0],[1.319830100001127],['target'],AN,2024-10-10_18h54.05.602,visualsearchtask,2024.2.1,60.39110487405529,2024-10-10 18h54.30.270239 +0530,
163,0,163,[0.2475],[0.23875],[1],[0],[0],[1.5913670000009006],['target'],163,0,163,0,278.4631034000049,,,,,10,278.4507856000055,278.4631034000049,278.4631034000049,0.024039199997787364,280.0425249000036,[0.2475],[0.23875],[1],[0],[0],[1.5913670000009006],['target'],AN,2024-10-10_18h54.05.602,visualsearchtask,2024.2.1,60.39110487405529,2024-10-10 18h54.30.270239 +0530,
164,0,164,[0.17],[0.4625],[1],[0],[0],[2.139193899995007],['target'],164,0,164,0,280.0823457000006,,,,,10,280.06905879999977,280.0823457000006,280.0823457000006,0.02632620000076713,282.2086011000065,[0.17],[0.4625],[1],[0],[0],[2.139193899995007],['target'],AN,2024-10-10_18h54.05.602,visualsearchtask,2024.2.1,60.39110487405529,2024-10-10 18h54.30.270239 +0530,
165,0,165,[-0.15375],[-0.05],[1],[0],[0],[1.216866700000537],['target'],165,0,165,0,282.23881450000044,,,,,5,282.2234903999997,282.23881450000044,282.23881450000044,0.014700200001243502,283.4407380000048,[-0.15375],[-0.05],[1],[0],[0],[1.216866700000537],['target'],AN,2024-10-10_18h54.05.602,visualsearchtask,2024.2.1,60.39110487405529,2024-10-10 18h54.30.270239 +0530,
166,0,166,[-0.06625],[0.34625],[1],[0],[0],[1.174201699999685],['target'],166,0,166,0,283.47182690000045,,,,,5,283.4521728000036,283.47182690000045,283.47182690000045,0.011304700004984625,284.62678670000605,[-0.06625],[0.34625],[1],[0],[0],[1.174201699999685],['target'],AN,2024-10-10_18h54.05.602,visualsearchtask,2024.2.1,60.39110487405529,2024-10-10 18h54.30.270239 +0530,
167,0,167,[0.0925],[-0.25875],[1],[0],[0],[1.5146925000008196],['target'],167,0,167,0,284.65426180000213,,,,,5,284.6416173000034,284.65426180000213,284.65426180000213,0.014671199998701923,286.1566262000051,[0.0925],[-0.25875],[1],[0],[0],[1.5146925000008196],['target'],AN,2024-10-10_18h54.05.602,visualsearchtask,2024.2.1,60.39110487405529,2024-10-10 18h54.30.270239 +0530,
168,0,168,[0.37125],[-0.3375],[1],[0],[0],[1.3039782000050764],['target'],168,0,168,0,286.18754920000356,,,,,5,286.16835930000525,286.18754920000356,286.18754920000356,0.011609100001805928,287.4727076000054,[0.37125],[-0.3375],[1],[0],[0],[1.3039782000050764],['target'],AN,2024-10-10_18h54.05.602,visualsearchtask,2024.2.1,60.39110487405529,2024-10-10 18h54.30.270239 +0530,
169,0,169,[0.285],[-0.02875],[1],[0],[0],[1.2235342999993009],['target'],169,0,169,0,287.5100381000011,,,,,10,287.4984462000066,287.5100381000011,287.5100381000011,0.025564900002791546,288.7223654000045,[0.285],[-0.02875],[1],[0],[0],[1.2235342999993009],['target'],AN,2024-10-10_18h54.05.602,visualsearchtask,2024.2.1,60.39110487405529,2024-10-10 18h54.30.270239 +0530,
170,0,170,[0.405],[0.31125],[1],[0],[0],[1.1424315000040224],['target'],170,0,170,0,288.7585349000001,,,,,10,288.7458334000039,288.7585349000001,288.7585349000001,0.02330950000032317,289.8886402999997,[0.405],[0.31125],[1],[0],[0],[1.1424315000040224],['target'],AN,2024-10-10_18h54.05.602,visualsearchtask,2024.2.1,60.39110487405529,2024-10-10 18h54.30.270239 +0530,
171,0,171,[0.50125],[0.3775],[1],[0],[0],[1.3707663000022876],['target'],171,0,171,0,289.91906980000203,,,,,5,289.9003374000022,289.91906980000203,289.91906980000203,0.011534999997820705,291.271464700003,[0.50125],[0.3775],[1],[0],[0],[1.3707663000022876],['target'],AN,2024-10-10_18h54.05.602,visualsearchtask,2024.2.1,60.39110487405529,2024-10-10 18h54.30.270239 +0530,
172,0,172,[0.0],[-0.0925],[1],[0],[0],[1.4251290000029257],['target'],172,0,172,0,291.3068928000066,,,,,10,291.29493999999977,291.3068928000066,291.3068928000066,0.02335250000032829,292.7204000000056,[0.0],[-0.0925],[1],[0],[0],[1.4251290000029257],['target'],AN,2024-10-10_18h54.05.602,visualsearchtask,2024.2.1,60.39110487405529,2024-10-10 18h54.30.270239 +0530,
173,0,173,[0.47125],[0.00625],[1],[0],[0],[1.6247688999937964],['target'],173,0,173,0,292.75791640000534,,,,,10,292.74466990000656,292.75791640000534,292.75791640000534,0.02411739999661222,294.36984640000446,[0.47125],[0.00625],[1],[0],[0],[1.6247688999937964],['target'],AN,2024-10-10_18h54.05.602,visualsearchtask,2024.2.1,60.39110487405529,2024-10-10 18h54.30.270239 +0530,
174,0,174,[-0.31875],[-0.19],[1],[0],[0],[1.4686435999974492],['target'],174,0,174,0,294.4008202000041,,,,,5,294.3846981000024,294.4008202000041,294.4008202000041,0.014644599999883212,295.85382329999993,[-0.31875],[-0.19],[1],[0],[0],[1.4686435999974492],['target'],AN,2024-10-10_18h54.05.602,visualsearchtask,2024.2.1,60.39110487405529,2024-10-10 18h54.30.270239 +0530,
175,0,175,[-0.31125],[-0.2875],[1],[0],[0],[1.4206319000004441],['target'],175,0,175,0,295.8931919000024,,,,,10,295.88034000000334,295.8931919000024,295.8931919000024,0.02635059999738587,297.30133890000434,[-0.31125],[-0.2875],[1],[0],[0],[1.4206319000004441],['target'],AN,2024-10-10_18h54.05.602,visualsearchtask,2024.2.1,60.39110487405529,2024-10-10 18h54.30.270239 +0530,
176,0,176,[-0.1325],[-0.41],[1],[0],[0],[1.1178550999975414],['target'],176,0,176,0,297.3327572000053,,,,,5,297.3162513999996,297.3327572000053,297.3327572000053,0.014722200001415331,298.43447330000345,[-0.1325],[-0.41],[1],[0],[0],[1.1178550999975414],['target'],AN,2024-10-10_18h54.05.602,visualsearchtask,2024.2.1,60.39110487405529,2024-10-10 18h54.30.270239 +0530,
177,0,177,[-0.46375],[0.46625],[1],[0],[0],[2.1255381000009947],['target'],177,0,177,0,298.4700567000036,,,,,10,298.4577950000021,298.4700567000036,298.4700567000036,0.02320060000056401,300.58366510000633,[-0.46375],[0.46625],[1],[0],[0],[2.1255381000009947],['target'],AN,2024-10-10_18h54.05.602,visualsearchtask,2024.2.1,60.39110487405529,2024-10-10 18h54.30.270239 +0530,
178,0,178,[0.4075],[-0.37125],[1],[0],[0],[1.502848099997209],['target'],178,0,178,0,300.6140379999997,,,,,5,300.5963591000036,300.6140379999997,300.6140379999997,0.012551799998618662,302.0995782000027,[0.4075],[-0.37125],[1],[0],[0],[1.502848099997209],['target'],AN,2024-10-10_18h54.05.602,visualsearchtask,2024.2.1,60.39110487405529,2024-10-10 18h54.30.270239 +0530,
179,0,179,[0.4075],[0.0375],[1],[0],[0],[1.1372566999998526],['target'],179,0,179,0,302.1305743000048,,,,,5,302.11123630000657,302.1305743000048,302.1305743000048,0.011528000002726912,303.24882400000206,[0.4075],[0.0375],[1],[0],[0],[1.1372566999998526],['target'],AN,2024-10-10_18h54.05.602,visualsearchtask,2024.2.1,60.39110487405529,2024-10-10 18h54.30.270239 +0530,
180,0,180,[0.27375],[-0.465],[1],[0],[0],[1.3716888999988441],['target'],180,0,180,0,303.2802953999999,,,,,5,303.26026830000046,303.2802953999999,303.2802953999999,0.011313900002278388,304.63232170000265,[0.27375],[-0.465],[1],[0],[0],[1.3716888999988441],['target'],AN,2024-10-10_18h54.05.602,visualsearchtask,2024.2.1,60.39110487405529,2024-10-10 18h54.30.270239 +0530,
181,0,181,[-0.3225],[-0.4575],[1],[0],[0],[1.2206960000039544],['target'],181,0,181,0,304.6636024000036,,,,,5,304.6444230000052,304.6636024000036,304.6636024000036,0.011936999995668884,305.8655360000048,[-0.3225],[-0.4575],[1],[0],[0],[1.2206960000039544],['target'],AN,2024-10-10_18h54.05.602,visualsearchtask,2024.2.1,60.39110487405529,2024-10-10 18h54.30.270239 +0530,
182,0,182,[-0.44],[0.24875],[1],[0],[0],[1.1162858999960008],['target'],182,0,182,0,305.89532619999954,,,,,5,305.88123970000015,305.89532619999954,305.89532619999954,0.015536699997028336,306.9978779000012,[-0.44],[0.24875],[1],[0],[0],[1.1162858999960008],['target'],AN,2024-10-10_18h54.05.602,visualsearchtask,2024.2.1,60.39110487405529,2024-10-10 18h54.30.270239 +0530,
183,0,183,[-0.1975],[0.25875],[1],[0],[0],[1.7220006000061403],['target'],183,0,183,0,307.0359660000031,,,,,10,307.0241961000065,307.0359660000031,307.0359660000031,0.026150300000153948,308.7465461000029,[-0.1975],[0.25875],[1],[0],[0],[1.7220006000061403],['target'],AN,2024-10-10_18h54.05.602,visualsearchtask,2024.2.1,60.39110487405529,2024-10-10 18h54.30.270239 +0530,
184,0,184,[0.48125],[0.28375],[1],[0],[0],[1.6560688000026857],['target'],184,0,184,0,308.784564900001,,,,,10,308.77298610000435,308.784564900001,308.784564900001,0.026228900002024602,310.4295265000037,[0.48125],[0.28375],[1],[0],[0],[1.6560688000026857],['target'],AN,2024-10-10_18h54.05.602,visualsearchtask,2024.2.1,60.39110487405529,2024-10-10 18h54.30.270239 +0530,
185,0,185,[-0.0525],[0.35125],[1],[0],[0],[1.0705544000011287],['target'],185,0,185,0,310.53543250000075,,,,,5,310.44144740000047,310.53543250000075,310.53543250000075,0.011758200002077501,311.51235020000604,[-0.0525],[0.35125],[1],[0],[0],[1.0705544000011287],['target'],AN,2024-10-10_18h54.05.602,visualsearchtask,2024.2.1,60.39110487405529,2024-10-10 18h54.30.270239 +0530,
186,0,186,[0.35875],[-0.34625],[1],[0],[0],[1.8723128000056022],['target'],186,0,186,0,311.5515280000036,,,,,10,311.5386773000064,311.5515280000036,311.5515280000036,0.0261471000048914,313.41137660000095,[0.35875],[-0.34625],[1],[0],[0],[1.8723128000056022],['target'],AN,2024-10-10_18h54.05.602,visualsearchtask,2024.2.1,60.39110487405529,2024-10-10 18h54.30.270239 +0530,
187,0,187,[-0.23625],[0.0475],[1],[0],[0],[1.2709929999982705],['target'],187,0,187,0,313.4421008000063,,,,,5,313.4229218000037,313.4421008000063,313.4421008000063,0.011389799998141825,314.6942842999997,[-0.23625],[0.0475],[1],[0],[0],[1.2709929999982705],['target'],AN,2024-10-10_18h54.05.602,visualsearchtask,2024.2.1,60.39110487405529,2024-10-10 18h54.30.270239 +0530,
188,0,188,[-0.43375],[0.46875],[1],[0],[0],[1.5371450999955414],['target'],188,0,188,0,314.72472080000443,,,,,5,314.7060636000024,314.72472080000443,314.72472080000443,0.0116520000010496,316.24356240000634,[-0.43375],[0.46875],[1],[0],[0],[1.5371450999955414],['target'],AN,2024-10-10_18h54.05.602,visualsearchtask,2024.2.1,60.39110487405529,2024-10-10 18h54.30.270239 +0530,
189,0,189,[-0.3475],[-0.12875],[1],[0],[0],[2.9664724999965983],['target'],189,0,189,0,316.27466950000235,,,,,5,316.25868730000366,316.27466950000235,316.27466950000235,0.014929800003301352,319.2255360000054,[-0.3475],[-0.12875],[1],[0],[0],[2.9664724999965983],['target'],AN,2024-10-10_18h54.05.602,visualsearchtask,2024.2.1,60.39110487405529,2024-10-10 18h54.30.270239 +0530,
190,0,190,[-0.31375],[0.1075],[1],[0],[0],[0.9397518999976455],['target'],190,0,190,0,319.2640143000026,,,,,10,319.2516939000052,319.2640143000026,319.2640143000026,0.02599289999488974,320.1918796000027,[-0.31375],[0.1075],[1],[0],[0],[0.9397518999976455],['target'],AN,2024-10-10_18h54.05.602,visualsearchtask,2024.2.1,60.39110487405529,2024-10-10 18h54.30.270239 +0530,
191,0,191,[-0.4975],[0.38625],[1],[0],[0],[1.337130400002934],['target'],191,0,191,0,320.2226273000051,,,,,5,320.2038757000046,320.2226273000051,320.2226273000051,0.011833199998363853,321.54139450000366,[-0.4975],[0.38625],[1],[0],[0],[1.337130400002934],['target'],AN,2024-10-10_18h54.05.602,visualsearchtask,2024.2.1,60.39110487405529,2024-10-10 18h54.30.270239 +0530,
192,0,192,[0.005],[-0.2975],[1],[0],[0],[1.3699225000018487],['target'],192,0,192,0,321.5718393999996,,,,,5,321.5544022000031,321.5718393999996,321.5718393999996,0.012848999998823274,322.92465749999974,[0.005],[-0.2975],[1],[0],[0],[1.3699225000018487],['target'],AN,2024-10-10_18h54.05.602,visualsearchtask,2024.2.1,60.39110487405529,2024-10-10 18h54.30.270239 +0530,
193,0,193,[0.0725],[0.06],[1],[0],[0],[1.0997683000023244],['target'],193,0,193,0,322.954707900004,,,,,5,322.9397509000046,322.954707900004,322.954707900004,0.01492570000118576,324.03986350000196,[0.0725],[0.06],[1],[0],[0],[1.0997683000023244],['target'],AN,2024-10-10_18h54.05.602,visualsearchtask,2024.2.1,60.39110487405529,2024-10-10 18h54.30.270239 +0530,
194,0,194,[0.4475],[0.23125],[1],[0],[0],[1.4043906000006245],['target'],194,0,194,0,324.07139720000123,,,,,5,324.05151350000233,324.07139720000123,324.07139720000123,0.01151920000120299,325.45626210000046,[0.4475],[0.23125],[1],[0],[0],[1.4043906000006245],['target'],AN,2024-10-10_18h54.05.602,visualsearchtask,2024.2.1,60.39110487405529,2024-10-10 18h54.30.270239 +0530,
195,0,195,[0.24625],[-0.185],[1],[0],[0],[1.000892300005944],[None],195,0,195,0,325.4871445000026,,,,,5,325.47109980000096,325.4871445000026,325.4871445000026,0.014679699997941498,326.4723756000021,[0.24625],[-0.185],[1],[0],[0],[1.000892300005944],[None],AN,2024-10-10_18h54.05.602,visualsearchtask,2024.2.1,60.39110487405529,2024-10-10 18h54.30.270239 +0530,
196,0,196,[-0.15],[-0.25875],[1],[0],[0],[1.3729200000016135],['target'],196,0,196,0,326.5105823000049,,,,,10,326.4986002000005,326.5105823000049,326.5105823000049,0.026056500006234273,327.8719004000013,[-0.15],[-0.25875],[1],[0],[0],[1.3729200000016135],['target'],AN,2024-10-10_18h54.05.602,visualsearchtask,2024.2.1,60.39110487405529,2024-10-10 18h54.30.270239 +0530,
197,0,197,[0.41875],[-0.3375],[1],[0],[0],[1.4203474999958416],['target'],197,0,197,0,327.90244990000065,,,,,5,327.88387689999945,327.90244990000065,327.90244990000065,0.011817499995231628,329.3045321000027,[0.41875],[-0.3375],[1],[0],[0],[1.4203474999958416],['target'],AN,2024-10-10_18h54.05.602,visualsearchtask,2024.2.1,60.39110487405529,2024-10-10 18h54.30.270239 +0530,
198,0,198,[-0.07125],[-0.3525],[1],[0],[0],[1.343316099999356],['target'],198,0,198,0,329.33972420000646,,,,,10,329.32743889999983,329.33972420000646,329.33972420000646,0.022783399996114895,330.6711262000026,[-0.07125],[-0.3525],[1],[0],[0],[1.343316099999356],['target'],AN,2024-10-10_18h54.05.602,visualsearchtask,2024.2.1,60.39110487405529,2024-10-10 18h54.30.270239 +0530,
199,0,199,[0.09625],[-0.1375],[1],[0],[0],[2.237190100000589],['target'],199,0,199,0,330.7011870999995,,,,,5,330.6828145000036,330.7011870999995,330.7011870999995,0.011530700001458172,332.92031940000015,[0.09625],[-0.1375],[1],[0],[0],[2.237190100000589],['target'],AN,2024-10-10_18h54.05.602,visualsearchtask,2024.2.1,60.39110487405529,2024-10-10 18h54.30.270239 +0530,
