thisN,thisTrialN,thisRepN,mouse.x,mouse.y,mouse.leftButton,mouse.midButton,mouse.rightButton,mouse.time,mouse.clicked_name,trials.thisRepN,trials.thisTrialN,trials.thisN,trials.thisIndex,thisRow.t,notes,Instructions.started,text.started,Instructions.stopped,num_distr,trial.started,fixation.started,target.started,mouse.started,trial.stopped,trials.mouse.x,trials.mouse.y,trials.mouse.leftButton,trials.mouse.midButton,trials.mouse.rightButton,trials.mouse.time,trials.mouse.clicked_name,participant,date,expName,psychopyVersion,frameRate,expStart,
,,,,,,,,,,,,,,,,0.004984400000012101,0.024903799999947296,7.005073700000025,,,,,,,,,,,,,,SK,2024-10-10_07h16.09.125,visualsearchtask,2024.2.1,59.942766646416935,2024-10-10 07h16.24.757143 +0530,
0,0,0,[-0.18375],[-0.28125],[1],[0],[0],[1.632484599999998],['target'],0,0,0,0,7.204088299999967,,,,,10,7.060562799999957,7.204088299999967,7.204088299999967,0.06025379999994129,8.693485200000055,[-0.18375],[-0.28125],[1],[0],[0],[1.632484599999998],['target'],SK,2024-10-10_07h16.09.125,visualsearchtask,2024.2.1,59.942766646416935,2024-10-10 07h16.24.757143 +0530,
1,0,1,[-0.47125],[-0.46625],[1],[0],[0],[1.2646960000000718],['target'],1,0,1,0,8.715403599999945,,,,,5,8.706579300000044,8.715403599999945,8.715403599999945,0.012891899999999623,9.971599399999945,[-0.47125],[-0.46625],[1],[0],[0],[1.2646960000000718],['target'],SK,2024-10-10_07h16.09.125,visualsearchtask,2024.2.1,59.942766646416935,2024-10-10 07h16.24.757143 +0530,
2,0,2,[-0.2125],[-0.30375],[1],[0],[0],[1.0702592000000095],['target'],2,0,2,0,10.00372040000002,,,,,5,9.98357390000001,10.00372040000002,10.00372040000002,0.011839999999892825,11.054121699999996,[-0.2125],[-0.30375],[1],[0],[0],[1.0702592000000095],['target'],SK,2024-10-10_07h16.09.125,visualsearchtask,2024.2.1,59.942766646416935,2024-10-10 07h16.24.757143 +0530,
3,0,3,[0.295],[0.12125],[1],[0],[0],[1.1203784999999016],['target'],3,0,3,0,11.085790599999996,,,,,5,11.066546900000048,11.085790599999996,11.085790599999996,0.01229379999995217,12.187283900000011,[0.295],[0.12125],[1],[0],[0],[1.1203784999999016],['target'],SK,2024-10-10_07h16.09.125,visualsearchtask,2024.2.1,59.942766646416935,2024-10-10 07h16.24.757143 +0530,
4,0,4,[0.01125],[-0.33875],[1],[0],[0],[1.4023618999999599],['target'],4,0,4,0,12.218634199999997,,,,,5,12.200126400000045,12.218634199999997,12.218634199999997,0.012708200000020042,13.602849399999968,[0.01125],[-0.33875],[1],[0],[0],[1.4023618999999599],['target'],SK,2024-10-10_07h16.09.125,visualsearchtask,2024.2.1,59.942766646416935,2024-10-10 07h16.24.757143 +0530,
5,0,5,[-0.2075],[-0.42],[1],[0],[0],[1.369996399999991],['target'],5,0,5,0,13.634487499999977,,,,,5,13.615302400000019,13.634487499999977,13.634487499999977,0.012311800000020412,14.985724300000015,[-0.2075],[-0.42],[1],[0],[0],[1.369996399999991],['target'],SK,2024-10-10_07h16.09.125,visualsearchtask,2024.2.1,59.942766646416935,2024-10-10 07h16.24.757143 +0530,
6,0,6,[0.4025],[0.32625],[1],[0],[0],[1.320797500000026],['target'],6,0,6,0,15.017757800000027,,,,,5,14.997627999999963,15.017757800000027,15.017757800000027,0.011765699999955359,16.318772399999943,[0.4025],[0.32625],[1],[0],[0],[1.320797500000026],['target'],SK,2024-10-10_07h16.09.125,visualsearchtask,2024.2.1,59.942766646416935,2024-10-10 07h16.24.757143 +0530,
7,0,7,[0.205],[0.46125],[1],[0],[0],[2.2174893999999767],['target'],7,0,7,0,16.349701500000037,,,,,5,16.33389269999998,16.349701500000037,16.349701500000037,0.014920299999971576,18.55174169999998,[0.205],[0.46125],[1],[0],[0],[2.2174893999999767],['target'],SK,2024-10-10_07h16.09.125,visualsearchtask,2024.2.1,59.942766646416935,2024-10-10 07h16.24.757143 +0530,
8,0,8,[-0.0675],[-0.03875],[1],[0],[0],[1.1855073000000402],['target'],8,0,8,0,18.582820800000036,,,,,5,18.565015399999993,18.582820800000036,18.582820800000036,0.013151600000014696,19.750929100000008,[-0.0675],[-0.03875],[1],[0],[0],[1.1855073000000402],['target'],SK,2024-10-10_07h16.09.125,visualsearchtask,2024.2.1,59.942766646416935,2024-10-10 07h16.24.757143 +0530,
9,0,9,[0.435],[0.095],[1],[0],[0],[1.8053871999999274],['target'],9,0,9,0,19.790280100000018,,,,,10,19.777511799999957,19.790280100000018,19.790280100000018,0.02632260000007136,21.58329189999995,[0.435],[0.095],[1],[0],[0],[1.8053871999999274],['target'],SK,2024-10-10_07h16.09.125,visualsearchtask,2024.2.1,59.942766646416935,2024-10-10 07h16.24.757143 +0530,
10,0,10,[-0.44],[-0.28125],[1],[0],[0],[1.7084247999999889],['target'],10,0,10,0,21.62048130000005,,,,,10,21.60739149999995,21.62048130000005,21.62048130000005,0.023923200000012912,23.316158299999984,[-0.44],[-0.28125],[1],[0],[0],[1.7084247999999889],['target'],SK,2024-10-10_07h16.09.125,visualsearchtask,2024.2.1,59.942766646416935,2024-10-10 07h16.24.757143 +0530,
11,0,11,[0.115],[-0.2225],[1],[0],[0],[1.2758456000000251],['target'],11,0,11,0,23.35338139999999,,,,,10,23.340133000000037,23.35338139999999,23.35338139999999,0.02382039999997687,24.61639649999995,[0.115],[-0.2225],[1],[0],[0],[1.2758456000000251],['target'],SK,2024-10-10_07h16.09.125,visualsearchtask,2024.2.1,59.942766646416935,2024-10-10 07h16.24.757143 +0530,
12,0,12,[-0.34375],[0.39375],[1],[0],[0],[1.7186515999999301],['target'],12,0,12,0,24.647872699999994,,,,,5,24.62903510000001,24.647872699999994,24.647872699999994,0.012480099999947925,26.348009400000024,[-0.34375],[0.39375],[1],[0],[0],[1.7186515999999301],['target'],SK,2024-10-10_07h16.09.125,visualsearchtask,2024.2.1,59.942766646416935,2024-10-10 07h16.24.757143 +0530,
13,0,13,[0.3075],[0.40875],[1],[0],[0],[1.2027481999999736],['target'],13,0,13,0,26.379709299999945,,,,,5,26.360646299999985,26.379709299999945,26.379709299999945,0.01250619999996161,27.563699100000008,[0.3075],[0.40875],[1],[0],[0],[1.2027481999999736],['target'],SK,2024-10-10_07h16.09.125,visualsearchtask,2024.2.1,59.942766646416935,2024-10-10 07h16.24.757143 +0530,
14,0,14,[0.215],[-0.01],[1],[0],[0],[1.5372078000000329],['target'],14,0,14,0,27.595373699999982,,,,,5,27.576111399999945,27.595373699999982,27.595373699999982,0.012285300000030475,29.11368779999998,[0.215],[-0.01],[1],[0],[0],[1.5372078000000329],['target'],SK,2024-10-10_07h16.09.125,visualsearchtask,2024.2.1,59.942766646416935,2024-10-10 07h16.24.757143 +0530,
15,0,15,[-0.30375],[0.3175],[1],[0],[0],[1.4838957999999138],['target'],15,0,15,0,29.14439500000003,,,,,5,29.128713500000003,29.14439500000003,29.14439500000003,0.014849500000082116,30.61296379999999,[-0.30375],[0.3175],[1],[0],[0],[1.4838957999999138],['target'],SK,2024-10-10_07h16.09.125,visualsearchtask,2024.2.1,59.942766646416935,2024-10-10 07h16.24.757143 +0530,
16,0,16,[0.12125],[-0.4325],[1],[0],[0],[1.5027122999999847],['target'],16,0,16,0,30.644535700000006,,,,,5,30.625659799999994,30.644535700000006,30.644535700000006,0.012546399999905589,32.12872679999998,[0.12125],[-0.4325],[1],[0],[0],[1.5027122999999847],['target'],SK,2024-10-10_07h16.09.125,visualsearchtask,2024.2.1,59.942766646416935,2024-10-10 07h16.24.757143 +0530,
17,0,17,[-0.315],[-0.1725],[1],[0],[0],[2.3740174999999226],['target'],17,0,17,0,32.16626180000003,,,,,10,32.15286279999998,32.16626180000003,32.16626180000003,0.024004199999922093,34.527358100000015,[-0.315],[-0.1725],[1],[0],[0],[2.3740174999999226],['target'],SK,2024-10-10_07h16.09.125,visualsearchtask,2024.2.1,59.942766646416935,2024-10-10 07h16.24.757143 +0530,
18,0,18,[0.29125],[-0.30375],[1],[0],[0],[1.5022524999999405],['target'],18,0,18,0,34.55871909999996,,,,,5,34.54097660000002,34.55871909999996,34.55871909999996,0.013459399999987909,36.043583499999954,[0.29125],[-0.30375],[1],[0],[0],[1.5022524999999405],['target'],SK,2024-10-10_07h16.09.125,visualsearchtask,2024.2.1,59.942766646416935,2024-10-10 07h16.24.757143 +0530,
19,0,19,[-0.21875],[0.475],[1],[0],[0],[1.7365749999999025],['target'],19,0,19,0,36.07531510000001,,,,,5,36.056001599999945,36.07531510000001,36.07531510000001,0.012259500000027401,37.792930299999966,[-0.21875],[0.475],[1],[0],[0],[1.7365749999999025],['target'],SK,2024-10-10_07h16.09.125,visualsearchtask,2024.2.1,59.942766646416935,2024-10-10 07h16.24.757143 +0530,
20,0,20,[0.48875],[-0.13625],[1],[0],[0],[1.7676784999999882],['target'],20,0,20,0,37.82544299999995,,,,,5,37.80793870000002,37.82544299999995,37.82544299999995,0.01484189999996488,39.575995199999966,[0.48875],[-0.13625],[1],[0],[0],[1.7676784999999882],['target'],SK,2024-10-10_07h16.09.125,visualsearchtask,2024.2.1,59.942766646416935,2024-10-10 07h16.24.757143 +0530,
21,0,21,[-0.265],[0.01875],[1],[0],[0],[1.2528317999999672],['target'],21,0,21,0,39.6075816,,,,,5,39.58835339999996,39.6075816,39.6075816,0.012228999999933876,40.84154950000004,[-0.265],[0.01875],[1],[0],[0],[1.2528317999999672],['target'],SK,2024-10-10_07h16.09.125,visualsearchtask,2024.2.1,59.942766646416935,2024-10-10 07h16.24.757143 +0530,
22,0,22,[-0.41625],[-0.01375],[1],[0],[0],[1.4536448000000064],['target'],22,0,22,0,40.874173799999994,,,,,5,40.85350070000004,40.874173799999994,40.874173799999994,0.011816500000009,42.30749400000002,[-0.41625],[-0.01375],[1],[0],[0],[1.4536448000000064],['target'],SK,2024-10-10_07h16.09.125,visualsearchtask,2024.2.1,59.942766646416935,2024-10-10 07h16.24.757143 +0530,
23,0,23,[0.445],[0.12875],[1],[0],[0],[1.6233247999999776],['target'],23,0,23,0,42.347009999999955,,,,,10,42.3332762,42.347009999999955,42.347009999999955,0.025615299999913077,43.95691020000004,[0.445],[0.12875],[1],[0],[0],[1.6233247999999776],['target'],SK,2024-10-10_07h16.09.125,visualsearchtask,2024.2.1,59.942766646416935,2024-10-10 07h16.24.757143 +0530,
24,0,24,[-0.3775],[0.1125],[1],[0],[0],[1.350698399999942],['target'],24,0,24,0,43.98854819999997,,,,,5,43.9718441,43.98854819999997,43.98854819999997,0.014726300000006631,45.32293430000004,[-0.3775],[0.1125],[1],[0],[0],[1.350698399999942],['target'],SK,2024-10-10_07h16.09.125,visualsearchtask,2024.2.1,59.942766646416935,2024-10-10 07h16.24.757143 +0530,
25,0,25,[-0.04625],[-0.0675],[1],[0],[0],[1.7083884999999555],['target'],25,0,25,0,45.36033859999998,,,,,10,45.34700150000003,45.36033859999998,45.36033859999998,0.023934000000053857,47.055792999999994,[-0.04625],[-0.0675],[1],[0],[0],[1.7083884999999555],['target'],SK,2024-10-10_07h16.09.125,visualsearchtask,2024.2.1,59.942766646416935,2024-10-10 07h16.24.757143 +0530,
26,0,26,[0.41625],[-0.065],[1],[0],[0],[1.5992532999999867],['target'],26,0,26,0,47.086599399999955,,,,,5,47.071587499999964,47.086599399999955,47.086599399999955,0.015578599999912512,48.6712536,[0.41625],[-0.065],[1],[0],[0],[1.5992532999999867],['target'],SK,2024-10-10_07h16.09.125,visualsearchtask,2024.2.1,59.942766646416935,2024-10-10 07h16.24.757143 +0530,
27,0,27,[0.22],[0.225],[1],[0],[0],[1.792579499999988],['target'],27,0,27,0,48.70754299999999,,,,,10,48.69477840000002,48.70754299999999,48.70754299999999,0.02338509999992766,50.4877262,[0.22],[0.225],[1],[0],[0],[1.792579499999988],['target'],SK,2024-10-10_07h16.09.125,visualsearchtask,2024.2.1,59.942766646416935,2024-10-10 07h16.24.757143 +0530,
28,0,28,[0.11],[0.445],[1],[0],[0],[1.3250590000000102],['target'],28,0,28,0,50.525465199999985,,,,,10,50.512105399999996,50.525465199999985,50.525465199999985,0.02421270000002096,51.83757230000003,[0.11],[0.445],[1],[0],[0],[1.3250590000000102],['target'],SK,2024-10-10_07h16.09.125,visualsearchtask,2024.2.1,59.942766646416935,2024-10-10 07h16.24.757143 +0530,
29,0,29,[-0.14625],[0.44625],[1],[0],[0],[2.3187553000000207],['target'],29,0,29,0,51.868536199999994,,,,,5,51.84984589999999,51.868536199999994,51.868536199999994,0.012112800000068091,54.16895239999997,[-0.14625],[0.44625],[1],[0],[0],[2.3187553000000207],['target'],SK,2024-10-10_07h16.09.125,visualsearchtask,2024.2.1,59.942766646416935,2024-10-10 07h16.24.757143 +0530,
30,0,30,[-0.245],[0.41375],[1],[0],[0],[1.9535615999999436],['target'],30,0,30,0,54.20020699999998,,,,,5,54.18114990000004,54.20020699999998,54.20020699999998,0.012057099999992715,56.13501289999999,[-0.245],[0.41375],[1],[0],[0],[1.9535615999999436],['target'],SK,2024-10-10_07h16.09.125,visualsearchtask,2024.2.1,59.942766646416935,2024-10-10 07h16.24.757143 +0530,
31,0,31,[0.165],[0.385],[1],[0],[0],[1.7538007000000562],['target'],31,0,31,0,56.18335420000005,,,,,10,56.16292599999997,56.18335420000005,56.18335420000005,0.027795100000048478,57.91711459999999,[0.165],[0.385],[1],[0],[0],[1.7538007000000562],['target'],SK,2024-10-10_07h16.09.125,visualsearchtask,2024.2.1,59.942766646416935,2024-10-10 07h16.24.757143 +0530,
32,0,32,[-0.5],[0.43125],[1],[0],[0],[1.975876200000016],['target'],32,0,32,0,57.95335769999997,,,,,10,57.94081040000003,57.95335769999997,57.95335769999997,0.02354600000001028,59.91700249999997,[-0.5],[0.43125],[1],[0],[0],[1.975876200000016],['target'],SK,2024-10-10_07h16.09.125,visualsearchtask,2024.2.1,59.942766646416935,2024-10-10 07h16.24.757143 +0530,
33,0,33,[0.4675],[0.285],[1],[0],[0],[2.389978299999939],['target'],33,0,33,0,59.95399039999995,,,,,10,59.94162210000002,59.95399039999995,59.95399039999995,0.024462399999947593,62.33195909999995,[0.4675],[0.285],[1],[0],[0],[2.389978299999939],['target'],SK,2024-10-10_07h16.09.125,visualsearchtask,2024.2.1,59.942766646416935,2024-10-10 07h16.24.757143 +0530,
34,0,34,[0.155],[0.47],[1],[0],[0],[1.143213400000036],['target'],34,0,34,0,62.3681603,,,,,10,62.3553531,62.3681603,62.3681603,0.023229700000001685,63.49892990000001,[0.155],[0.47],[1],[0],[0],[1.143213400000036],['target'],SK,2024-10-10_07h16.09.125,visualsearchtask,2024.2.1,59.942766646416935,2024-10-10 07h16.24.757143 +0530,
35,0,35,[0.485],[-0.365],[1],[0],[0],[2.3881388999999444],['target'],35,0,35,0,63.53989230000002,,,,,10,63.52551159999996,63.53989230000002,63.53989230000002,0.02638349999995171,65.91406729999994,[0.485],[-0.365],[1],[0],[0],[2.3881388999999444],['target'],SK,2024-10-10_07h16.09.125,visualsearchtask,2024.2.1,59.942766646416935,2024-10-10 07h16.24.757143 +0530,
36,0,36,[-0.48],[-0.45125],[1],[0],[0],[2.3087831999999935],['target'],36,0,36,0,65.95073479999996,,,,,10,65.93808149999995,65.95073479999996,65.95073479999996,0.0238493000000517,68.24723200000005,[-0.48],[-0.45125],[1],[0],[0],[2.3087831999999935],['target'],SK,2024-10-10_07h16.09.125,visualsearchtask,2024.2.1,59.942766646416935,2024-10-10 07h16.24.757143 +0530,
37,0,37,[0.245],[-0.3375],[1],[0],[0],[1.7828832000000148],['target'],37,0,37,0,68.27788009999995,,,,,5,68.262608,68.27788009999995,68.27788009999995,0.015161700000021483,70.04590540000004,[0.245],[-0.3375],[1],[0],[0],[1.7828832000000148],['target'],SK,2024-10-10_07h16.09.125,visualsearchtask,2024.2.1,59.942766646416935,2024-10-10 07h16.24.757143 +0530,
38,0,38,[0.09625],[0.29125],[1],[0],[0],[1.707627699999989],['target'],38,0,38,0,70.0824427,,,,,10,70.06989190000002,70.0824427,70.0824427,0.023845800000003692,71.77784180000003,[0.09625],[0.29125],[1],[0],[0],[1.707627699999989],['target'],SK,2024-10-10_07h16.09.125,visualsearchtask,2024.2.1,59.942766646416935,2024-10-10 07h16.24.757143 +0530,
39,0,39,[0.06],[0.12625],[1],[0],[0],[1.6763543999999229],['target'],39,0,39,0,71.81430030000001,,,,,10,71.80086779999999,71.81430030000001,71.81430030000001,0.022862099999997554,73.47752969999999,[0.06],[0.12625],[1],[0],[0],[1.6763543999999229],['target'],SK,2024-10-10_07h16.09.125,visualsearchtask,2024.2.1,59.942766646416935,2024-10-10 07h16.24.757143 +0530,
40,0,40,[-0.01],[-0.19875],[1],[0],[0],[1.2037867000000233],['target'],40,0,40,0,73.50825759999998,,,,,5,73.48951799999998,73.50825759999998,73.50825759999998,0.01183220000007168,74.69359220000001,[-0.01],[-0.19875],[1],[0],[0],[1.2037867000000233],['target'],SK,2024-10-10_07h16.09.125,visualsearchtask,2024.2.1,59.942766646416935,2024-10-10 07h16.24.757143 +0530,
41,0,41,[-0.01],[-0.29],[1],[0],[0],[1.0539077999999336],['target'],41,0,41,0,74.72461309999994,,,,,5,74.7059769,74.72461309999994,74.72461309999994,0.012255999999979394,75.76019480000002,[-0.01],[-0.29],[1],[0],[0],[1.0539077999999336],['target'],SK,2024-10-10_07h16.09.125,visualsearchtask,2024.2.1,59.942766646416935,2024-10-10 07h16.24.757143 +0530,
42,0,42,[-0.2025],[0.42625],[1],[0],[0],[1.6333867999999256],['target'],42,0,42,0,75.7909482,,,,,5,75.77506419999997,75.7909482,75.7909482,0.014687399999957051,77.4087376,[-0.2025],[0.42625],[1],[0],[0],[1.6333867999999256],['target'],SK,2024-10-10_07h16.09.125,visualsearchtask,2024.2.1,59.942766646416935,2024-10-10 07h16.24.757143 +0530,
43,0,43,[0.37625],[-0.425],[1],[0],[0],[1.7877991000000293],['target'],43,0,43,0,77.44094689999997,,,,,5,77.4207735,77.44094689999997,77.44094689999997,0.011911000000054628,79.20893520000004,[0.37625],[-0.425],[1],[0],[0],[1.7877991000000293],['target'],SK,2024-10-10_07h16.09.125,visualsearchtask,2024.2.1,59.942766646416935,2024-10-10 07h16.24.757143 +0530,
44,0,44,[-0.15],[0.46125],[1],[0],[0],[2.035638400000039],['target'],44,0,44,0,79.23930919999998,,,,,5,79.22106929999995,79.23930919999998,79.23930919999998,0.012000899999975445,81.25710119999997,[-0.15],[0.46125],[1],[0],[0],[2.035638400000039],['target'],SK,2024-10-10_07h16.09.125,visualsearchtask,2024.2.1,59.942766646416935,2024-10-10 07h16.24.757143 +0530,
45,0,45,[-0.15875],[-0.3125],[1],[0],[0],[1.4364846999999372],['target'],45,0,45,0,81.28884900000003,,,,,5,81.27108999999996,81.28884900000003,81.28884900000003,0.013818199999946046,82.7080651,[-0.15875],[-0.3125],[1],[0],[0],[1.4364846999999372],['target'],SK,2024-10-10_07h16.09.125,visualsearchtask,2024.2.1,59.942766646416935,2024-10-10 07h16.24.757143 +0530,
46,0,46,[0.07125],[-0.39625],[1],[0],[0],[1.299250200000074],['target'],46,0,46,0,82.73808589999999,,,,,5,82.72389169999997,82.73808589999999,82.73808589999999,0.015637299999980314,84.02356110000005,[0.07125],[-0.39625],[1],[0],[0],[1.299250200000074],['target'],SK,2024-10-10_07h16.09.125,visualsearchtask,2024.2.1,59.942766646416935,2024-10-10 07h16.24.757143 +0530,
47,0,47,[-0.42],[0.295],[1],[0],[0],[2.005544299999997],['target'],47,0,47,0,84.06457699999999,,,,,10,84.04957060000004,84.06457699999999,84.06457699999999,0.02582940000002054,86.05545749999999,[-0.42],[0.295],[1],[0],[0],[2.005544299999997],['target'],SK,2024-10-10_07h16.09.125,visualsearchtask,2024.2.1,59.942766646416935,2024-10-10 07h16.24.757143 +0530,
48,0,48,[0.0825],[-0.31375],[1],[0],[0],[1.3191930000000411],['target'],48,0,48,0,86.08687139999995,,,,,5,86.06891180000002,86.08687139999995,86.08687139999995,0.01329720000001089,87.38846980000005,[0.0825],[-0.31375],[1],[0],[0],[1.3191930000000411],['target'],SK,2024-10-10_07h16.09.125,visualsearchtask,2024.2.1,59.942766646416935,2024-10-10 07h16.24.757143 +0530,
49,0,49,[0.12875],[-0.31375],[1],[0],[0],[1.3573636999999508],['target'],49,0,49,0,87.42551609999998,,,,,10,87.41307589999997,87.42551609999998,87.42551609999998,0.024437699999907636,88.7707388,[0.12875],[-0.31375],[1],[0],[0],[1.3573636999999508],['target'],SK,2024-10-10_07h16.09.125,visualsearchtask,2024.2.1,59.942766646416935,2024-10-10 07h16.24.757143 +0530,
50,0,50,[-0.1425],[0.15375],[1],[0],[0],[1.2870484000000033],['target'],50,0,50,0,88.80237839999995,,,,,5,88.78286519999995,88.80237839999995,88.80237839999995,0.011974399999985508,90.07028219999995,[-0.1425],[0.15375],[1],[0],[0],[1.2870484000000033],['target'],SK,2024-10-10_07h16.09.125,visualsearchtask,2024.2.1,59.942766646416935,2024-10-10 07h16.24.757143 +0530,
51,0,51,[-0.47125],[0.39875],[1],[0],[0],[1.506003899999996],['target'],51,0,51,0,90.10916850000001,,,,,10,90.09646869999995,90.10916850000001,90.10916850000001,0.026016099999992548,91.60281020000002,[-0.47125],[0.39875],[1],[0],[0],[1.506003899999996],['target'],SK,2024-10-10_07h16.09.125,visualsearchtask,2024.2.1,59.942766646416935,2024-10-10 07h16.24.757143 +0530,
52,0,52,[-0.3325],[-0.26375],[1],[0],[0],[2.0902657000000318],['target'],52,0,52,0,91.64068529999997,,,,,10,91.62804930000004,91.64068529999997,91.64068529999997,0.025087900000016816,93.71878419999996,[-0.3325],[-0.26375],[1],[0],[0],[2.0902657000000318],['target'],SK,2024-10-10_07h16.09.125,visualsearchtask,2024.2.1,59.942766646416935,2024-10-10 07h16.24.757143 +0530,
53,0,53,[0.34],[0.02875],[1],[0],[0],[1.753801899999985],['target'],53,0,53,0,93.7498693,,,,,5,93.73089749999997,93.7498693,93.7498693,0.011838600000032784,95.48510420000002,[0.34],[0.02875],[1],[0],[0],[1.753801899999985],['target'],SK,2024-10-10_07h16.09.125,visualsearchtask,2024.2.1,59.942766646416935,2024-10-10 07h16.24.757143 +0530,
54,0,54,[0.205],[-0.05375],[1],[0],[0],[1.4884600999999975],['target'],54,0,54,0,95.52408720000005,,,,,10,95.51143230000002,95.52408720000005,95.52408720000005,0.02616319999992811,97.00022409999997,[0.205],[-0.05375],[1],[0],[0],[1.4884600999999975],['target'],SK,2024-10-10_07h16.09.125,visualsearchtask,2024.2.1,59.942766646416935,2024-10-10 07h16.24.757143 +0530,
55,0,55,[0.16625],[-0.1325],[1],[0],[0],[1.1176276999999573],['target'],55,0,55,0,97.03282439999998,,,,,5,97.01518480000004,97.03282439999998,97.03282439999998,0.014749499999993532,98.13311629999998,[0.16625],[-0.1325],[1],[0],[0],[1.1176276999999573],['target'],SK,2024-10-10_07h16.09.125,visualsearchtask,2024.2.1,59.942766646416935,2024-10-10 07h16.24.757143 +0530,
56,0,56,[0.18875],[-0.165],[1],[0],[0],[1.0088640000000169],['target'],56,0,56,0,98.16960010000003,,,,,10,98.15704470000003,98.16960010000003,98.16960010000003,0.023802600000067287,99.1663906,[0.18875],[-0.165],[1],[0],[0],[1.0088640000000169],['target'],SK,2024-10-10_07h16.09.125,visualsearchtask,2024.2.1,59.942766646416935,2024-10-10 07h16.24.757143 +0530,
57,0,57,[0.35625],[-0.17],[1],[0],[0],[1.370016899999996],['target'],57,0,57,0,99.19846399999994,,,,,5,99.17827799999998,99.19846399999994,99.19846399999994,0.011717700000076547,100.54862079999998,[0.35625],[-0.17],[1],[0],[0],[1.370016899999996],['target'],SK,2024-10-10_07h16.09.125,visualsearchtask,2024.2.1,59.942766646416935,2024-10-10 07h16.24.757143 +0530,
58,0,58,[-0.28875],[-0.02875],[1],[0],[0],[1.2845272000000705],['target'],58,0,58,0,100.58084110000004,,,,,5,100.56370509999999,100.58084110000004,100.58084110000004,0.014919999999960964,101.84860419999995,[-0.28875],[-0.02875],[1],[0],[0],[1.2845272000000705],['target'],SK,2024-10-10_07h16.09.125,visualsearchtask,2024.2.1,59.942766646416935,2024-10-10 07h16.24.757143 +0530,
59,0,59,[0.19625],[-0.44625],[1],[0],[0],[1.6696942999999465],['target'],59,0,59,0,101.87948989999995,,,,,5,101.86093040000003,101.87948989999995,101.87948989999995,0.012201499999946464,103.53097390000005,[0.19625],[-0.44625],[1],[0],[0],[1.6696942999999465],['target'],SK,2024-10-10_07h16.09.125,visualsearchtask,2024.2.1,59.942766646416935,2024-10-10 07h16.24.757143 +0530,
60,0,60,[-0.115],[-0.16125],[1],[0],[0],[1.3414311999999882],['target'],60,0,60,0,103.56812769999999,,,,,10,103.55540020000001,103.56812769999999,103.56812769999999,0.02429820000008931,104.89716669999996,[-0.115],[-0.16125],[1],[0],[0],[1.3414311999999882],['target'],SK,2024-10-10_07h16.09.125,visualsearchtask,2024.2.1,59.942766646416935,2024-10-10 07h16.24.757143 +0530,
61,0,61,[-0.32625],[0.3375],[1],[0],[0],[1.8532807000000275],['target'],61,0,61,0,105.07900649999999,,,,,5,104.90975279999998,105.07900649999999,105.07900649999999,0.012432500000045366,106.7633581,[-0.32625],[0.3375],[1],[0],[0],[1.8532807000000275],['target'],SK,2024-10-10_07h16.09.125,visualsearchtask,2024.2.1,59.942766646416935,2024-10-10 07h16.24.757143 +0530,
62,0,62,[-0.3875],[0.13875],[1],[0],[0],[1.4082406999999648],['target'],62,0,62,0,106.81170429999997,,,,,10,106.78752870000005,106.81170429999997,106.81170429999997,0.02404809999995905,108.19606980000003,[-0.3875],[0.13875],[1],[0],[0],[1.4082406999999648],['target'],SK,2024-10-10_07h16.09.125,visualsearchtask,2024.2.1,59.942766646416935,2024-10-10 07h16.24.757143 +0530,
63,0,63,[0.285],[0.2125],[1],[0],[0],[1.3360222999999678],['target'],63,0,63,0,108.22694560000002,,,,,5,108.2090786,108.22694560000002,108.22694560000002,0.012862000000041007,109.54539460000001,[0.285],[0.2125],[1],[0],[0],[1.3360222999999678],['target'],SK,2024-10-10_07h16.09.125,visualsearchtask,2024.2.1,59.942766646416935,2024-10-10 07h16.24.757143 +0530,
64,0,64,[-0.07],[-0.455],[1],[0],[0],[2.3414391000000023],['target'],64,0,64,0,109.58188740000003,,,,,10,109.5693602,109.58188740000003,109.58188740000003,0.023842399999921327,111.91109419999998,[-0.07],[-0.455],[1],[0],[0],[2.3414391000000023],['target'],SK,2024-10-10_07h16.09.125,visualsearchtask,2024.2.1,59.942766646416935,2024-10-10 07h16.24.757143 +0530,
65,0,65,[0.03],[-0.03375],[1],[0],[0],[1.7361915999999837],['target'],65,0,65,0,111.9419451,,,,,5,111.92346850000001,111.9419451,111.9419451,0.012224499999888394,113.66004339999995,[0.03],[-0.03375],[1],[0],[0],[1.7361915999999837],['target'],SK,2024-10-10_07h16.09.125,visualsearchtask,2024.2.1,59.942766646416935,2024-10-10 07h16.24.757143 +0530,
66,0,66,[-0.0675],[0.33125],[1],[0],[0],[1.5414114000000154],['target'],66,0,66,0,113.69756189999998,,,,,10,113.68404910000004,113.69756189999998,113.69756189999998,0.023874000000091655,115.22575659999995,[-0.0675],[0.33125],[1],[0],[0],[1.5414114000000154],['target'],SK,2024-10-10_07h16.09.125,visualsearchtask,2024.2.1,59.942766646416935,2024-10-10 07h16.24.757143 +0530,
67,0,67,[-0.12],[0.46875],[1],[0],[0],[1.659853699999985],['target'],67,0,67,0,115.26254140000003,,,,,10,115.24912419999998,115.26254140000003,115.26254140000003,0.02321710000001076,116.90933919999998,[-0.12],[0.46875],[1],[0],[0],[1.659853699999985],['target'],SK,2024-10-10_07h16.09.125,visualsearchtask,2024.2.1,59.942766646416935,2024-10-10 07h16.24.757143 +0530,
68,0,68,[0.4725],[0.0175],[1],[0],[0],[2.25771850000001],['target'],68,0,68,0,116.9455901,,,,,10,116.93308720000005,116.9455901,116.9455901,0.02355920000002243,119.19116510000003,[0.4725],[0.0175],[1],[0],[0],[2.25771850000001],['target'],SK,2024-10-10_07h16.09.125,visualsearchtask,2024.2.1,59.942766646416935,2024-10-10 07h16.24.757143 +0530,
69,0,69,[-0.29375],[0.28125],[1],[0],[0],[1.7688029999999344],['target'],69,0,69,0,119.22251170000004,,,,,5,119.20464900000002,119.22251170000004,119.22251170000004,0.013290099999949234,120.97380950000002,[-0.29375],[0.28125],[1],[0],[0],[1.7688029999999344],['target'],SK,2024-10-10_07h16.09.125,visualsearchtask,2024.2.1,59.942766646416935,2024-10-10 07h16.24.757143 +0530,
70,0,70,[0.44875],[0.29375],[1],[0],[0],[1.81930710000006],['target'],70,0,70,0,121.00473020000004,,,,,5,120.98602500000004,121.00473020000004,121.00473020000004,0.012084299999969517,122.80569809999997,[0.44875],[0.29375],[1],[0],[0],[1.81930710000006],['target'],SK,2024-10-10_07h16.09.125,visualsearchtask,2024.2.1,59.942766646416935,2024-10-10 07h16.24.757143 +0530,
71,0,71,[-0.19875],[0.0725],[1],[0],[0],[2.3730577999999696],['target'],71,0,71,0,122.84559809999996,,,,,10,122.83241569999996,122.84559809999996,122.84559809999996,0.02654280000001563,125.20581159999995,[-0.19875],[0.0725],[1],[0],[0],[2.3730577999999696],['target'],SK,2024-10-10_07h16.09.125,visualsearchtask,2024.2.1,59.942766646416935,2024-10-10 07h16.24.757143 +0530,
72,0,72,[-0.265],[-0.2475],[1],[0],[0],[2.0829943999999614],['target'],72,0,72,0,125.23641429999998,,,,,5,125.22092110000006,125.23641429999998,125.23641429999998,0.01490220000005138,127.30421330000001,[-0.265],[-0.2475],[1],[0],[0],[2.0829943999999614],['target'],SK,2024-10-10_07h16.09.125,visualsearchtask,2024.2.1,59.942766646416935,2024-10-10 07h16.24.757143 +0530,
73,0,73,[-0.06],[0.4825],[1],[0],[0],[2.1353882999999314],['target'],73,0,73,0,127.3357638,,,,,5,127.31774759999996,127.3357638,127.3357638,0.013403799999991861,129.4534761,[-0.06],[0.4825],[1],[0],[0],[2.1353882999999314],['target'],SK,2024-10-10_07h16.09.125,visualsearchtask,2024.2.1,59.942766646416935,2024-10-10 07h16.24.757143 +0530,
74,0,74,[-0.0475],[-0.38625],[1],[0],[0],[2.290629899999999],['target'],74,0,74,0,129.49063950000004,,,,,10,129.4778288,129.49063950000004,129.49063950000004,0.024225699999988137,131.7687581,[-0.0475],[-0.38625],[1],[0],[0],[2.290629899999999],['target'],SK,2024-10-10_07h16.09.125,visualsearchtask,2024.2.1,59.942766646416935,2024-10-10 07h16.24.757143 +0530,
75,0,75,[-0.3625],[-0.46],[1],[0],[0],[1.6195772999999463],['target'],75,0,75,0,131.80023819999997,,,,,5,131.78165809999996,131.80023819999997,131.80023819999997,0.012750799999935225,133.4016206,[-0.3625],[-0.46],[1],[0],[0],[1.6195772999999463],['target'],SK,2024-10-10_07h16.09.125,visualsearchtask,2024.2.1,59.942766646416935,2024-10-10 07h16.24.757143 +0530,
76,0,76,[-0.1025],[-0.35],[1],[0],[0],[1.3873358999999255],['target'],76,0,76,0,133.43354799999997,,,,,5,133.41331379999997,133.43354799999997,133.43354799999997,0.011549599999966631,134.8010289,[-0.1025],[-0.35],[1],[0],[0],[1.3873358999999255],['target'],SK,2024-10-10_07h16.09.125,visualsearchtask,2024.2.1,59.942766646416935,2024-10-10 07h16.24.757143 +0530,
77,0,77,[-0.3775],[0.18],[1],[0],[0],[1.9402658999999858],['target'],77,0,77,0,134.84000449999996,,,,,10,134.82664079999995,134.84000449999996,134.84000449999996,0.025453200000015386,136.76726329999997,[-0.3775],[0.18],[1],[0],[0],[1.9402658999999858],['target'],SK,2024-10-10_07h16.09.125,visualsearchtask,2024.2.1,59.942766646416935,2024-10-10 07h16.24.757143 +0530,
78,0,78,[-0.0525],[0.095],[1],[0],[0],[1.4693245999999363],['target'],78,0,78,0,136.79825919999996,,,,,5,136.78012690000003,136.79825919999996,136.79825919999996,0.012681400000019494,138.24986090000004,[-0.0525],[0.095],[1],[0],[0],[1.4693245999999363],['target'],SK,2024-10-10_07h16.09.125,visualsearchtask,2024.2.1,59.942766646416935,2024-10-10 07h16.24.757143 +0530,
79,0,79,[-0.04375],[0.45125],[1],[0],[0],[1.5864033999999947],['target'],79,0,79,0,138.2808179,,,,,5,138.2624174,138.2808179,138.2808179,0.012420800000086274,139.84919890000003,[-0.04375],[0.45125],[1],[0],[0],[1.5864033999999947],['target'],SK,2024-10-10_07h16.09.125,visualsearchtask,2024.2.1,59.942766646416935,2024-10-10 07h16.24.757143 +0530,
80,0,80,[0.35125],[-0.41],[1],[0],[0],[3.2336930999999822],['target'],80,0,80,0,139.8801568,,,,,5,139.86381329999995,139.8801568,139.8801568,0.014467899999999645,143.09793360000003,[0.35125],[-0.41],[1],[0],[0],[3.2336930999999822],['target'],SK,2024-10-10_07h16.09.125,visualsearchtask,2024.2.1,59.942766646416935,2024-10-10 07h16.24.757143 +0530,
81,0,81,[0.22375],[0.39125],[1],[0],[0],[2.916685099999995],['target'],81,0,81,0,143.12871140000004,,,,,5,143.11262490000001,143.12871140000004,143.12871140000004,0.014566899999977068,146.0296396,[0.22375],[0.39125],[1],[0],[0],[2.916685099999995],['target'],SK,2024-10-10_07h16.09.125,visualsearchtask,2024.2.1,59.942766646416935,2024-10-10 07h16.24.757143 +0530,
82,0,82,[0.3],[-0.09875],[1],[0],[0],[2.2837144999999737],['target'],82,0,82,0,146.06103859999996,,,,,5,146.04483930000004,146.06103859999996,146.06103859999996,0.015027400000008129,148.32895459999997,[0.3],[-0.09875],[1],[0],[0],[2.2837144999999737],['target'],SK,2024-10-10_07h16.09.125,visualsearchtask,2024.2.1,59.942766646416935,2024-10-10 07h16.24.757143 +0530,
83,0,83,[-0.07125],[-0.30125],[1],[0],[0],[1.508458100000098],['target'],83,0,83,0,148.36491950000004,,,,,10,148.35239950000005,148.36491950000004,148.36491950000004,0.02329100000008566,149.861221,[-0.07125],[-0.30125],[1],[0],[0],[1.508458100000098],['target'],SK,2024-10-10_07h16.09.125,visualsearchtask,2024.2.1,59.942766646416935,2024-10-10 07h16.24.757143 +0530,
84,0,84,[0.35375],[-0.01],[1],[0],[0],[1.437089799999967],['target'],84,0,84,0,149.89289829999996,,,,,5,149.87298309999994,149.89289829999996,149.89289829999996,0.011604999999917709,151.31043309999995,[0.35375],[-0.01],[1],[0],[0],[1.437089799999967],['target'],SK,2024-10-10_07h16.09.125,visualsearchtask,2024.2.1,59.942766646416935,2024-10-10 07h16.24.757143 +0530,
85,0,85,[0.2525],[0.46125],[1],[0],[0],[3.1246386999999913],['target'],85,0,85,0,151.34753320000004,,,,,10,151.3343635,151.34753320000004,151.34753320000004,0.0238053000000491,154.45931759999996,[0.2525],[0.46125],[1],[0],[0],[3.1246386999999913],['target'],SK,2024-10-10_07h16.09.125,visualsearchtask,2024.2.1,59.942766646416935,2024-10-10 07h16.24.757143 +0530,
86,0,86,[-0.01],[-0.1025],[1],[0],[0],[2.1077507999999625],['target'],86,0,86,0,154.49655529999995,,,,,10,154.48376410000003,154.49655529999995,154.49655529999995,0.02426150000007965,156.5918974,[-0.01],[-0.1025],[1],[0],[0],[2.1077507999999625],['target'],SK,2024-10-10_07h16.09.125,visualsearchtask,2024.2.1,59.942766646416935,2024-10-10 07h16.24.757143 +0530,
87,0,87,[-0.37125],[-0.05625],[1],[0],[0],[1.524493399999983],['target'],87,0,87,0,156.62923590000003,,,,,10,156.61674689999995,156.62923590000003,156.62923590000003,0.024692300000083378,158.1416458,[-0.37125],[-0.05625],[1],[0],[0],[1.524493399999983],['target'],SK,2024-10-10_07h16.09.125,visualsearchtask,2024.2.1,59.942766646416935,2024-10-10 07h16.24.757143 +0530,
88,0,88,[-0.37625],[0.30625],[1],[0],[0],[1.6586628999999675],['target'],88,0,88,0,158.17760769999995,,,,,10,158.1649003,158.17760769999995,158.17760769999995,0.023098500000060085,159.8239178,[-0.37625],[0.30625],[1],[0],[0],[1.6586628999999675],['target'],SK,2024-10-10_07h16.09.125,visualsearchtask,2024.2.1,59.942766646416935,2024-10-10 07h16.24.757143 +0530,
89,0,89,[-0.2325],[-0.215],[1],[0],[0],[1.5686345999999958],['target'],89,0,89,0,159.85450690000005,,,,,5,159.8372303,159.85450690000005,159.85450690000005,0.013162700000066252,161.40625590000002,[-0.2325],[-0.215],[1],[0],[0],[1.5686345999999958],['target'],SK,2024-10-10_07h16.09.125,visualsearchtask,2024.2.1,59.942766646416935,2024-10-10 07h16.24.757143 +0530,
90,0,90,[0.02625],[-0.4775],[1],[0],[0],[2.7915305000000217],['target'],90,0,90,0,161.4428087,,,,,10,161.43011230000002,161.4428087,161.4428087,0.023717199999964578,164.22200410000005,[0.02625],[-0.4775],[1],[0],[0],[2.7915305000000217],['target'],SK,2024-10-10_07h16.09.125,visualsearchtask,2024.2.1,59.942766646416935,2024-10-10 07h16.24.757143 +0530,
91,0,91,[0.11125],[0.14],[1],[0],[0],[2.324713299999985],['target'],91,0,91,0,164.25807180000004,,,,,10,164.24549760000002,164.25807180000004,164.25807180000004,0.02334110000003875,166.57058570000004,[0.11125],[0.14],[1],[0],[0],[2.324713299999985],['target'],SK,2024-10-10_07h16.09.125,visualsearchtask,2024.2.1,59.942766646416935,2024-10-10 07h16.24.757143 +0530,
92,0,92,[-0.46],[0.27],[1],[0],[0],[3.7051232000000027],['target'],92,0,92,0,166.61974080000005,,,,,10,166.5970112,166.61974080000005,166.61974080000005,0.026225399999930232,170.30249289999995,[-0.46],[0.27],[1],[0],[0],[3.7051232000000027],['target'],SK,2024-10-10_07h16.09.125,visualsearchtask,2024.2.1,59.942766646416935,2024-10-10 07h16.24.757143 +0530,
93,0,93,[-0.40625],[-0.3225],[1],[0],[0],[1.5708005999999841],['target'],93,0,93,0,170.3344432,,,,,5,170.3143354,170.3344432,170.3344432,0.011682500000006257,171.8854738,[-0.40625],[-0.3225],[1],[0],[0],[1.5708005999999841],['target'],SK,2024-10-10_07h16.09.125,visualsearchtask,2024.2.1,59.942766646416935,2024-10-10 07h16.24.757143 +0530,
94,0,94,[0.45125],[0.09875],[1],[0],[0],[2.4029045000000906],['target'],94,0,94,0,171.91798889999995,,,,,5,171.8974058,171.91798889999995,171.91798889999995,0.011807399999952395,174.3005928,[0.45125],[0.09875],[1],[0],[0],[2.4029045000000906],['target'],SK,2024-10-10_07h16.09.125,visualsearchtask,2024.2.1,59.942766646416935,2024-10-10 07h16.24.757143 +0530,
95,0,95,[0.415],[0.34875],[1],[0],[0],[1.6750405000000228],['target'],95,0,95,0,174.3373375,,,,,10,174.3245597,174.3373375,174.3373375,0.02383789999998953,175.99996629999998,[0.415],[0.34875],[1],[0],[0],[1.6750405000000228],['target'],SK,2024-10-10_07h16.09.125,visualsearchtask,2024.2.1,59.942766646416935,2024-10-10 07h16.24.757143 +0530,
96,0,96,[-0.075],[0.16375],[1],[0],[0],[1.5391526999999314],['target'],96,0,96,0,176.03896899999995,,,,,10,176.0261484,176.03896899999995,176.03896899999995,0.02597240000000056,177.56567340000004,[-0.075],[0.16375],[1],[0],[0],[1.5391526999999314],['target'],SK,2024-10-10_07h16.09.125,visualsearchtask,2024.2.1,59.942766646416935,2024-10-10 07h16.24.757143 +0530,
97,0,97,[-0.12125],[0.43875],[1],[0],[0],[1.342597899999987],['target'],97,0,97,0,177.60277710000003,,,,,10,177.58943869999996,177.60277710000003,177.60277710000003,0.023612399999933587,178.93241460000002,[-0.12125],[0.43875],[1],[0],[0],[1.342597899999987],['target'],SK,2024-10-10_07h16.09.125,visualsearchtask,2024.2.1,59.942766646416935,2024-10-10 07h16.24.757143 +0530,
98,0,98,[-0.36875],[0.2925],[1],[0],[0],[1.284352799999965],['target'],98,0,98,0,178.9637318,,,,,5,178.94712549999997,178.9637318,178.9637318,0.014516699999944649,180.23190739999995,[-0.36875],[0.2925],[1],[0],[0],[1.284352799999965],['target'],SK,2024-10-10_07h16.09.125,visualsearchtask,2024.2.1,59.942766646416935,2024-10-10 07h16.24.757143 +0530,
99,0,99,[0.16625],[-0.3925],[1],[0],[0],[1.8752431000000342],['target'],99,0,99,0,180.26824339999996,,,,,10,180.25505090000001,180.26824339999996,180.26824339999996,0.02300100000002203,182.13065440000003,[0.16625],[-0.3925],[1],[0],[0],[1.8752431000000342],['target'],SK,2024-10-10_07h16.09.125,visualsearchtask,2024.2.1,59.942766646416935,2024-10-10 07h16.24.757143 +0530,
100,0,100,[0.32125],[-0.06125],[1],[0],[0],[2.036466599999926],['target'],100,0,100,0,182.16185510000003,,,,,5,182.1431255,182.16185510000003,182.16185510000003,0.012316299999952207,184.17996889999995,[0.32125],[-0.06125],[1],[0],[0],[2.036466599999926],['target'],SK,2024-10-10_07h16.09.125,visualsearchtask,2024.2.1,59.942766646416935,2024-10-10 07h16.24.757143 +0530,
101,0,101,[0.305],[-0.42],[1],[0],[0],[1.4550909999999249],['target'],101,0,101,0,184.22002110000005,,,,,10,184.2068362,184.22002110000005,184.22002110000005,0.026705099999958293,185.6622383,[0.305],[-0.42],[1],[0],[0],[1.4550909999999249],['target'],SK,2024-10-10_07h16.09.125,visualsearchtask,2024.2.1,59.942766646416935,2024-10-10 07h16.24.757143 +0530,
102,0,102,[0.03],[-0.1],[1],[0],[0],[2.250965499999893],['target'],102,0,102,0,185.69457650000004,,,,,5,185.677281,185.69457650000004,185.69457650000004,0.014839499999993677,187.92857679999997,[0.03],[-0.1],[1],[0],[0],[2.250965499999893],['target'],SK,2024-10-10_07h16.09.125,visualsearchtask,2024.2.1,59.942766646416935,2024-10-10 07h16.24.757143 +0530,
103,0,103,[-0.03],[-0.3775],[1],[0],[0],[1.65238439999996],['target'],103,0,103,0,187.9608187,,,,,5,187.94094829999995,187.9608187,187.9608187,0.012238599999932376,189.5936699,[-0.03],[-0.3775],[1],[0],[0],[1.65238439999996],['target'],SK,2024-10-10_07h16.09.125,visualsearchtask,2024.2.1,59.942766646416935,2024-10-10 07h16.24.757143 +0530,
104,0,104,[0.44875],[-0.02875],[1],[0],[0],[2.808854800000063],['target'],104,0,104,0,189.62949619999995,,,,,10,189.61720579999997,189.62949619999995,189.62949619999995,0.023431000000073254,192.42646149999996,[0.44875],[-0.02875],[1],[0],[0],[2.808854800000063],['target'],SK,2024-10-10_07h16.09.125,visualsearchtask,2024.2.1,59.942766646416935,2024-10-10 07h16.24.757143 +0530,
105,0,105,[0.3025],[0.35875],[1],[0],[0],[1.8699991999999384],['target'],105,0,105,0,192.45749160000003,,,,,5,192.43854669999996,192.45749160000003,192.45749160000003,0.01190719999999601,194.30887940000002,[0.3025],[0.35875],[1],[0],[0],[1.8699991999999384],['target'],SK,2024-10-10_07h16.09.125,visualsearchtask,2024.2.1,59.942766646416935,2024-10-10 07h16.24.757143 +0530,
106,0,106,[-0.26625],[0.44875],[1],[0],[0],[2.9838756999999987],['target'],106,0,106,0,194.33991219999996,,,,,5,194.32358550000004,194.33991219999996,194.33991219999996,0.014537200000063422,197.30790449999995,[-0.26625],[0.44875],[1],[0],[0],[2.9838756999999987],['target'],SK,2024-10-10_07h16.09.125,visualsearchtask,2024.2.1,59.942766646416935,2024-10-10 07h16.24.757143 +0530,
107,0,107,[-0.2175],[0.38125],[1],[0],[0],[1.3038007000000107],['target'],107,0,107,0,197.33974520000004,,,,,5,197.32022970000003,197.33974520000004,197.33974520000004,0.012172599999985323,198.62449809999998,[-0.2175],[0.38125],[1],[0],[0],[1.3038007000000107],['target'],SK,2024-10-10_07h16.09.125,visualsearchtask,2024.2.1,59.942766646416935,2024-10-10 07h16.24.757143 +0530,
108,0,108,[0.48125],[-0.47125],[1],[0],[0],[2.624605699999961],['target'],108,0,108,0,198.6600267,,,,,10,198.64775010000005,198.6600267,198.6600267,0.023076200000105018,201.27265920000002,[0.48125],[-0.47125],[1],[0],[0],[2.624605699999961],['target'],SK,2024-10-10_07h16.09.125,visualsearchtask,2024.2.1,59.942766646416935,2024-10-10 07h16.24.757143 +0530,
109,0,109,[-0.2475],[0.125],[1],[0],[0],[1.7875018999999384],['target'],109,0,109,0,201.30405069999995,,,,,5,201.28477769999995,201.30405069999995,201.30405069999995,0.011971600000038052,203.07260499999995,[-0.2475],[0.125],[1],[0],[0],[1.7875018999999384],['target'],SK,2024-10-10_07h16.09.125,visualsearchtask,2024.2.1,59.942766646416935,2024-10-10 07h16.24.757143 +0530,
110,0,110,[-0.4175],[-0.31625],[1],[0],[0],[1.158407699999998],['target'],110,0,110,0,203.10897039999998,,,,,10,203.0962349,203.10897039999998,203.10897039999998,0.023472699999956603,204.25510459999998,[-0.4175],[-0.31625],[1],[0],[0],[1.158407699999998],['target'],SK,2024-10-10_07h16.09.125,visualsearchtask,2024.2.1,59.942766646416935,2024-10-10 07h16.24.757143 +0530,
111,0,111,[-0.46625],[-0.19875],[1],[0],[0],[1.237319599999978],['target'],111,0,111,0,204.29613759999995,,,,,10,204.28299660000005,204.29613759999995,204.29613759999995,0.027760200000102486,205.52072180000005,[-0.46625],[-0.19875],[1],[0],[0],[1.237319599999978],['target'],SK,2024-10-10_07h16.09.125,visualsearchtask,2024.2.1,59.942766646416935,2024-10-10 07h16.24.757143 +0530,
112,0,112,[-0.39625],[-0.435],[1],[0],[0],[1.2771124000000782],['target'],112,0,112,0,205.55762749999997,,,,,10,205.54460129999995,205.55762749999997,205.55762749999997,0.02370260000009239,206.8221681,[-0.39625],[-0.435],[1],[0],[0],[1.2771124000000782],['target'],SK,2024-10-10_07h16.09.125,visualsearchtask,2024.2.1,59.942766646416935,2024-10-10 07h16.24.757143 +0530,
113,0,113,[0.30875],[-0.00375],[1],[0],[0],[1.3871728000000303],['target'],113,0,113,0,206.8693204,,,,,10,206.84841189999997,206.8693204,206.8693204,0.02608629999997447,208.23593989999995,[0.30875],[-0.00375],[1],[0],[0],[1.3871728000000303],['target'],SK,2024-10-10_07h16.09.125,visualsearchtask,2024.2.1,59.942766646416935,2024-10-10 07h16.24.757143 +0530,
114,0,114,[0.31],[-0.15125],[1],[0],[0],[1.077157599999964],['target'],114,0,114,0,208.27274420000003,,,,,10,208.25949260000004,208.27274420000003,208.27274420000003,0.02339519999998174,209.33705210000005,[0.31],[-0.15125],[1],[0],[0],[1.077157599999964],['target'],SK,2024-10-10_07h16.09.125,visualsearchtask,2024.2.1,59.942766646416935,2024-10-10 07h16.24.757143 +0530,
115,0,115,[0.38],[-0.33625],[1],[0],[0],[1.2518301999999721],['target'],115,0,115,0,209.36793490000002,,,,,5,209.34969,209.36793490000002,209.36793490000002,0.012483699999961573,210.60185549999994,[0.38],[-0.33625],[1],[0],[0],[1.2518301999999721],['target'],SK,2024-10-10_07h16.09.125,visualsearchtask,2024.2.1,59.942766646416935,2024-10-10 07h16.24.757143 +0530,
116,0,116,[0.31375],[-0.43],[1],[0],[0],[1.5892360999999937],['target'],116,0,116,0,210.64174609999998,,,,,10,210.6280756,210.64174609999998,210.64174609999998,0.026060400000005757,212.2176273,[0.31375],[-0.43],[1],[0],[0],[1.5892360999999937],['target'],SK,2024-10-10_07h16.09.125,visualsearchtask,2024.2.1,59.942766646416935,2024-10-10 07h16.24.757143 +0530,
117,0,117,[0.0875],[-0.26875],[1],[0],[0],[1.4009015999999974],['target'],117,0,117,0,212.24902169999996,,,,,5,212.23253209999996,212.24902169999996,212.24902169999996,0.01469489999999496,213.63378179999995,[0.0875],[-0.26875],[1],[0],[0],[1.4009015999999974],['target'],SK,2024-10-10_07h16.09.125,visualsearchtask,2024.2.1,59.942766646416935,2024-10-10 07h16.24.757143 +0530,
118,0,118,[-0.28],[-0.46],[1],[0],[0],[1.3066524000000754],['target'],118,0,118,0,213.67325900000003,,,,,10,213.6595863,213.67325900000003,213.67325900000003,0.02564380000001165,214.96661689999996,[-0.28],[-0.46],[1],[0],[0],[1.3066524000000754],['target'],SK,2024-10-10_07h16.09.125,visualsearchtask,2024.2.1,59.942766646416935,2024-10-10 07h16.24.757143 +0530,
119,0,119,[-0.04375],[0.09875],[1],[0],[0],[2.54001089999997],['target'],119,0,119,0,215.0050728,,,,,10,214.99202549999995,215.0050728,215.0050728,0.025215500000058455,217.53235770000003,[-0.04375],[0.09875],[1],[0],[0],[2.54001089999997],['target'],SK,2024-10-10_07h16.09.125,visualsearchtask,2024.2.1,59.942766646416935,2024-10-10 07h16.24.757143 +0530,
120,0,120,[0.34375],[0.3875],[1],[0],[0],[2.542329699999982],['target'],120,0,120,0,217.5690829,,,,,10,217.5562,217.5690829,217.5690829,0.023685999999997875,220.09890610000002,[0.34375],[0.3875],[1],[0],[0],[2.542329699999982],['target'],SK,2024-10-10_07h16.09.125,visualsearchtask,2024.2.1,59.942766646416935,2024-10-10 07h16.24.757143 +0530,
121,0,121,[0.455],[0.30875],[1],[0],[0],[1.285375599999952],['target'],121,0,121,0,220.12883680000004,,,,,5,220.11133489999997,220.12883680000004,220.12883680000004,0.012271499999997104,221.39705579999998,[0.455],[0.30875],[1],[0],[0],[1.285375599999952],['target'],SK,2024-10-10_07h16.09.125,visualsearchtask,2024.2.1,59.942766646416935,2024-10-10 07h16.24.757143 +0530,
122,0,122,[-0.295],[0.0175],[1],[0],[0],[1.6068185999999969],['target'],122,0,122,0,221.43624309999996,,,,,10,221.4225728,221.43624309999996,221.43624309999996,0.02534299999990708,223.0296786,[-0.295],[0.0175],[1],[0],[0],[1.6068185999999969],['target'],SK,2024-10-10_07h16.09.125,visualsearchtask,2024.2.1,59.942766646416935,2024-10-10 07h16.24.757143 +0530,
123,0,123,[-0.045],[-0.06625],[1],[0],[0],[1.9249529999999595],['target'],123,0,123,0,223.06716340000003,,,,,10,223.05363980000004,223.06716340000003,223.06716340000003,0.023788399999943977,224.97896509999998,[-0.045],[-0.06625],[1],[0],[0],[1.9249529999999595],['target'],SK,2024-10-10_07h16.09.125,visualsearchtask,2024.2.1,59.942766646416935,2024-10-10 07h16.24.757143 +0530,
124,0,124,[-0.45125],[0.43625],[1],[0],[0],[1.9724919999999884],['target'],124,0,124,0,225.01867000000004,,,,,10,225.00524959999996,225.01867000000004,225.01867000000004,0.026087299999971947,226.97807850000004,[-0.45125],[0.43625],[1],[0],[0],[1.9724919999999884],['target'],SK,2024-10-10_07h16.09.125,visualsearchtask,2024.2.1,59.942766646416935,2024-10-10 07h16.24.757143 +0530,
125,0,125,[0.48625],[-0.4125],[1],[0],[0],[2.3920782000000145],['target'],125,0,125,0,227.01421319999997,,,,,10,227.00171980000005,227.01421319999997,227.01421319999997,0.02348810000000867,229.39417170000002,[0.48625],[-0.4125],[1],[0],[0],[2.3920782000000145],['target'],SK,2024-10-10_07h16.09.125,visualsearchtask,2024.2.1,59.942766646416935,2024-10-10 07h16.24.757143 +0530,
126,0,126,[0.375],[-0.13125],[1],[0],[0],[2.0193863000000647],['target'],126,0,126,0,229.42567559999998,,,,,5,229.40668289999996,229.42567559999998,229.42567559999998,0.012342699999976503,231.42640429999994,[0.375],[-0.13125],[1],[0],[0],[2.0193863000000647],['target'],SK,2024-10-10_07h16.09.125,visualsearchtask,2024.2.1,59.942766646416935,2024-10-10 07h16.24.757143 +0530,
127,0,127,[-0.11875],[-0.10125],[1],[0],[0],[1.5082714000000124],['target'],127,0,127,0,231.46304310000005,,,,,10,231.4502023,231.46304310000005,231.46304310000005,0.023668799999995827,232.95887530000005,[-0.11875],[-0.10125],[1],[0],[0],[1.5082714000000124],['target'],SK,2024-10-10_07h16.09.125,visualsearchtask,2024.2.1,59.942766646416935,2024-10-10 07h16.24.757143 +0530,
128,0,128,[0.12],[-0.43],[1],[0],[0],[3.0360189000000446],['target'],128,0,128,0,232.99060239999994,,,,,5,232.97101080000004,232.99060239999994,232.99060239999994,0.011985699999968347,236.00743139999997,[0.12],[-0.43],[1],[0],[0],[3.0360189000000446],['target'],SK,2024-10-10_07h16.09.125,visualsearchtask,2024.2.1,59.942766646416935,2024-10-10 07h16.24.757143 +0530,
129,0,129,[-0.47625],[-0.45125],[1],[0],[0],[2.636933699999986],['target'],129,0,129,0,236.03877039999998,,,,,5,236.01915989999998,236.03877039999998,236.03877039999998,0.011604499999975815,238.65652439999997,[-0.47625],[-0.45125],[1],[0],[0],[2.636933699999986],['target'],SK,2024-10-10_07h16.09.125,visualsearchtask,2024.2.1,59.942766646416935,2024-10-10 07h16.24.757143 +0530,
130,0,130,[-0.4175],[-0.1625],[1],[0],[0],[1.7409892000000582],['target'],130,0,130,0,238.69407750000005,,,,,10,238.68067889999998,238.69407750000005,238.69407750000005,0.024014600000100472,240.42199970000001,[-0.4175],[-0.1625],[1],[0],[0],[1.7409892000000582],['target'],SK,2024-10-10_07h16.09.125,visualsearchtask,2024.2.1,59.942766646416935,2024-10-10 07h16.24.757143 +0530,
131,0,131,[-0.1425],[0.13625],[1],[0],[0],[2.892761299999961],['target'],131,0,131,0,240.45786299999997,,,,,10,240.4446832,240.45786299999997,240.45786299999997,0.02252910000004249,243.3377799,[-0.1425],[0.13625],[1],[0],[0],[2.892761299999961],['target'],SK,2024-10-10_07h16.09.125,visualsearchtask,2024.2.1,59.942766646416935,2024-10-10 07h16.24.757143 +0530,
132,0,132,[0.25375],[0.4175],[1],[0],[0],[2.7252893999999515],['target'],132,0,132,0,243.3740093,,,,,10,243.36121509999998,243.3740093,243.3740093,0.02328690000001643,246.08683429999996,[0.25375],[0.4175],[1],[0],[0],[2.7252893999999515],['target'],SK,2024-10-10_07h16.09.125,visualsearchtask,2024.2.1,59.942766646416935,2024-10-10 07h16.24.757143 +0530,
133,0,133,[0.27375],[-0.175],[1],[0],[0],[2.3195638000000827],['target'],133,0,133,0,246.1182956,,,,,5,246.09949300000005,246.1182956,246.1182956,0.012432100000069113,248.4194182,[0.27375],[-0.175],[1],[0],[0],[2.3195638000000827],['target'],SK,2024-10-10_07h16.09.125,visualsearchtask,2024.2.1,59.942766646416935,2024-10-10 07h16.24.757143 +0530,
134,0,134,[-0.155],[0.22875],[1],[0],[0],[1.9698316000000204],['target'],134,0,134,0,248.45024090000004,,,,,5,248.43112559999997,248.45024090000004,248.45024090000004,0.011585200000013174,250.40130269999997,[-0.155],[0.22875],[1],[0],[0],[1.9698316000000204],['target'],SK,2024-10-10_07h16.09.125,visualsearchtask,2024.2.1,59.942766646416935,2024-10-10 07h16.24.757143 +0530,
135,0,135,[0.2225],[0.4625],[1],[0],[0],[2.0258793000000423],['target'],135,0,135,0,250.4369243,,,,,10,250.42410819999998,250.4369243,250.4369243,0.022670800000014424,252.45031749999998,[0.2225],[0.4625],[1],[0],[0],[2.0258793000000423],['target'],SK,2024-10-10_07h16.09.125,visualsearchtask,2024.2.1,59.942766646416935,2024-10-10 07h16.24.757143 +0530,
136,0,136,[0.06875],[-0.25],[1],[0],[0],[2.1198654999999462],['target'],136,0,136,0,252.4827166,,,,,5,252.46248119999996,252.4827166,252.4827166,0.012001400000031026,254.58277480000004,[0.06875],[-0.25],[1],[0],[0],[2.1198654999999462],['target'],SK,2024-10-10_07h16.09.125,visualsearchtask,2024.2.1,59.942766646416935,2024-10-10 07h16.24.757143 +0530,
137,0,137,[0.185],[0.34],[1],[0],[0],[3.0358224999999948],['target'],137,0,137,0,254.61473720000004,,,,,5,254.5954703,254.61473720000004,254.61473720000004,0.01249710000001869,257.6317378,[0.185],[0.34],[1],[0],[0],[3.0358224999999948],['target'],SK,2024-10-10_07h16.09.125,visualsearchtask,2024.2.1,59.942766646416935,2024-10-10 07h16.24.757143 +0530,
138,0,138,[-0.44375],[0.11375],[1],[0],[0],[1.2572078000000602],['target'],138,0,138,0,257.6700572,,,,,10,257.65707510000004,257.6700572,257.6700572,0.02515049999999519,258.9146237,[-0.44375],[0.11375],[1],[0],[0],[1.2572078000000602],['target'],SK,2024-10-10_07h16.09.125,visualsearchtask,2024.2.1,59.942766646416935,2024-10-10 07h16.24.757143 +0530,
139,0,139,[-0.24625],[-0.0025],[1],[0],[0],[2.25322749999998],['target'],139,0,139,0,258.94569979999994,,,,,5,258.92643410000005,258.94569979999994,258.94569979999994,0.011661599999911232,261.18005129999995,[-0.24625],[-0.0025],[1],[0],[0],[2.25322749999998],['target'],SK,2024-10-10_07h16.09.125,visualsearchtask,2024.2.1,59.942766646416935,2024-10-10 07h16.24.757143 +0530,
140,0,140,[-0.33375],[-0.46625],[1],[0],[0],[1.6014370999999983],['target'],140,0,140,0,261.21141839999996,,,,,5,261.19454129999997,261.21141839999996,261.21141839999996,0.014325999999982741,262.79637949999994,[-0.33375],[-0.46625],[1],[0],[0],[1.6014370999999983],['target'],SK,2024-10-10_07h16.09.125,visualsearchtask,2024.2.1,59.942766646416935,2024-10-10 07h16.24.757143 +0530,
141,0,141,[0.16375],[0.065],[1],[0],[0],[1.975592000000006],['target'],141,0,141,0,262.83238140000003,,,,,10,262.81957250000005,262.83238140000003,262.83238140000003,0.023065700000074685,264.79557239999997,[0.16375],[0.065],[1],[0],[0],[1.975592000000006],['target'],SK,2024-10-10_07h16.09.125,visualsearchtask,2024.2.1,59.942766646416935,2024-10-10 07h16.24.757143 +0530,
142,0,142,[0.09125],[0.40375],[1],[0],[0],[1.940986900000098],['target'],142,0,142,0,264.83129859999997,,,,,10,264.81923229999995,264.83129859999997,264.83129859999997,0.023491699999908633,266.760578,[0.09125],[0.40375],[1],[0],[0],[1.940986900000098],['target'],SK,2024-10-10_07h16.09.125,visualsearchtask,2024.2.1,59.942766646416935,2024-10-10 07h16.24.757143 +0530,
143,0,143,[0.1775],[-0.4325],[1],[0],[0],[1.3693982999999434],['target'],143,0,143,0,266.7916877,,,,,5,266.772875,266.7916877,266.7916877,0.012123400000064066,268.1426739,[0.1775],[-0.4325],[1],[0],[0],[1.3693982999999434],['target'],SK,2024-10-10_07h16.09.125,visualsearchtask,2024.2.1,59.942766646416935,2024-10-10 07h16.24.757143 +0530,
144,0,144,[0.4025],[-0.25125],[1],[0],[0],[1.2180362999999943],['target'],144,0,144,0,268.1744106,,,,,5,268.15744299999994,268.1744106,268.1744106,0.014614199999982702,269.3758626,[0.4025],[-0.25125],[1],[0],[0],[1.2180362999999943],['target'],SK,2024-10-10_07h16.09.125,visualsearchtask,2024.2.1,59.942766646416935,2024-10-10 07h16.24.757143 +0530,
145,0,145,[-0.36],[-0.14625],[1],[0],[0],[1.9411264000000301],['target'],145,0,145,0,269.41216569999995,,,,,10,269.39993300000003,269.41216569999995,269.41216569999995,0.023962099999948805,271.34142729999996,[-0.36],[-0.14625],[1],[0],[0],[1.9411264000000301],['target'],SK,2024-10-10_07h16.09.125,visualsearchtask,2024.2.1,59.942766646416935,2024-10-10 07h16.24.757143 +0530,
146,0,146,[-0.45875],[-0.09875],[1],[0],[0],[1.2069907000000057],['target'],146,0,146,0,271.37970770000004,,,,,10,271.36746029999995,271.37970770000004,271.37970770000004,0.025830000000041764,272.57487549999996,[-0.45875],[-0.09875],[1],[0],[0],[1.2069907000000057],['target'],SK,2024-10-10_07h16.09.125,visualsearchtask,2024.2.1,59.942766646416935,2024-10-10 07h16.24.757143 +0530,
147,0,147,[-0.17125],[0.12875],[1],[0],[0],[1.8170623999999407],['target'],147,0,147,0,272.6058908,,,,,5,272.5894283,272.6058908,272.6058908,0.014342900000087866,274.40687949999995,[-0.17125],[0.12875],[1],[0],[0],[1.8170623999999407],['target'],SK,2024-10-10_07h16.09.125,visualsearchtask,2024.2.1,59.942766646416935,2024-10-10 07h16.24.757143 +0530,
148,0,148,[0.225],[0.26],[1],[0],[0],[1.453467499999988],['target'],148,0,148,0,274.4383808,,,,,5,274.419398,274.4383808,274.4383808,0.012361199999986638,275.8731629,[0.225],[0.26],[1],[0],[0],[1.453467499999988],['target'],SK,2024-10-10_07h16.09.125,visualsearchtask,2024.2.1,59.942766646416935,2024-10-10 07h16.24.757143 +0530,
149,0,149,[-0.18625],[0.04125],[1],[0],[0],[1.1247896999999512],['target'],149,0,149,0,275.9093104,,,,,10,275.8972972,275.9093104,275.9093104,0.0240120000000843,277.02244169999994,[-0.18625],[0.04125],[1],[0],[0],[1.1247896999999512],['target'],SK,2024-10-10_07h16.09.125,visualsearchtask,2024.2.1,59.942766646416935,2024-10-10 07h16.24.757143 +0530,
150,0,150,[-0.1625],[0.29875],[1],[0],[0],[1.2215984999999137],['target'],150,0,150,0,277.0544718,,,,,5,277.03445350000004,277.0544718,277.0544718,0.01185520000001361,278.25645,[-0.1625],[0.29875],[1],[0],[0],[1.2215984999999137],['target'],SK,2024-10-10_07h16.09.125,visualsearchtask,2024.2.1,59.942766646416935,2024-10-10 07h16.24.757143 +0530,
151,0,151,[0.00125],[-0.24625],[1],[0],[0],[1.3029547999999522],['target'],151,0,151,0,278.28721900000005,,,,,5,278.26856539999994,278.28721900000005,278.28721900000005,0.011990200000013829,279.5718627,[0.00125],[-0.24625],[1],[0],[0],[1.3029547999999522],['target'],SK,2024-10-10_07h16.09.125,visualsearchtask,2024.2.1,59.942766646416935,2024-10-10 07h16.24.757143 +0530,
152,0,152,[-0.09875],[-0.27375],[1],[0],[0],[1.2682090999999218],['target'],152,0,152,0,279.60336459999996,,,,,5,279.58653189999995,279.60336459999996,279.60336459999996,0.014485100000001694,280.8551639,[-0.09875],[-0.27375],[1],[0],[0],[1.2682090999999218],['target'],SK,2024-10-10_07h16.09.125,visualsearchtask,2024.2.1,59.942766646416935,2024-10-10 07h16.24.757143 +0530,
153,0,153,[-0.11125],[0.22125],[1],[0],[0],[1.2918912000000091],['target'],153,0,153,0,280.8901366,,,,,10,280.87815379999995,280.8901366,280.8901366,0.022857699999917713,282.17035699999997,[-0.11125],[0.22125],[1],[0],[0],[1.2918912000000091],['target'],SK,2024-10-10_07h16.09.125,visualsearchtask,2024.2.1,59.942766646416935,2024-10-10 07h16.24.757143 +0530,
154,0,154,[0.1275],[-0.12875],[1],[0],[0],[1.9904228999999987],['target'],154,0,154,0,282.2079843,,,,,10,282.1960778,282.2079843,282.2079843,0.025512499999990723,284.18684540000004,[0.1275],[-0.12875],[1],[0],[0],[1.9904228999999987],['target'],SK,2024-10-10_07h16.09.125,visualsearchtask,2024.2.1,59.942766646416935,2024-10-10 07h16.24.757143 +0530,
155,0,155,[-0.05],[0.2],[1],[0],[0],[1.1415468999999803],['target'],155,0,155,0,284.2230088,,,,,10,284.21098859999995,284.2230088,284.2230088,0.02398819999996249,285.35293290000004,[-0.05],[0.2],[1],[0],[0],[1.1415468999999803],['target'],SK,2024-10-10_07h16.09.125,visualsearchtask,2024.2.1,59.942766646416935,2024-10-10 07h16.24.757143 +0530,
156,0,156,[-0.16875],[0.37375],[1],[0],[0],[1.2188983999999436],['target'],156,0,156,0,285.3838621,,,,,5,285.36574399999995,285.3838621,285.3838621,0.012591199999974378,286.5849988,[-0.16875],[0.37375],[1],[0],[0],[1.2188983999999436],['target'],SK,2024-10-10_07h16.09.125,visualsearchtask,2024.2.1,59.942766646416935,2024-10-10 07h16.24.757143 +0530,
157,0,157,[0.3825],[0.42875],[1],[0],[0],[1.9533707000000504],['target'],157,0,157,0,286.6160962,,,,,5,286.59724930000004,286.6160962,286.6160962,0.012124200000016572,288.5510273,[0.3825],[0.42875],[1],[0],[0],[1.9533707000000504],['target'],SK,2024-10-10_07h16.09.125,visualsearchtask,2024.2.1,59.942766646416935,2024-10-10 07h16.24.757143 +0530,
158,0,158,[-0.18125],[-0.4675],[1],[0],[0],[1.8191966000000548],['target'],158,0,158,0,288.5820003,,,,,5,288.56364510000003,288.5820003,288.5820003,0.012504199999966659,290.38316610000004,[-0.18125],[-0.4675],[1],[0],[0],[1.8191966000000548],['target'],SK,2024-10-10_07h16.09.125,visualsearchtask,2024.2.1,59.942766646416935,2024-10-10 07h16.24.757143 +0530,
159,0,159,[-0.29625],[-0.43],[1],[0],[0],[1.1546875999999884],['target'],159,0,159,0,290.4150154,,,,,5,290.39519540000003,290.4150154,290.4150154,0.011902599999984886,291.55024979999996,[-0.29625],[-0.43],[1],[0],[0],[1.1546875999999884],['target'],SK,2024-10-10_07h16.09.125,visualsearchtask,2024.2.1,59.942766646416935,2024-10-10 07h16.24.757143 +0530,
160,0,160,[0.22125],[0.24125],[1],[0],[0],[1.4690830999999207],['target'],160,0,160,0,291.58131119999996,,,,,5,291.56282180000005,291.58131119999996,291.58131119999996,0.012453199999981734,293.03218430000004,[0.22125],[0.24125],[1],[0],[0],[1.4690830999999207],['target'],SK,2024-10-10_07h16.09.125,visualsearchtask,2024.2.1,59.942766646416935,2024-10-10 07h16.24.757143 +0530,
161,0,161,[-0.25125],[0.0075],[1],[0],[0],[2.0570721000000276],['target'],161,0,161,0,293.0693843,,,,,10,293.0572876,293.0693843,293.0693843,0.024963500000012573,295.11476749999997,[-0.25125],[0.0075],[1],[0],[0],[2.0570721000000276],['target'],SK,2024-10-10_07h16.09.125,visualsearchtask,2024.2.1,59.942766646416935,2024-10-10 07h16.24.757143 +0530,
162,0,162,[-0.45],[0.3425],[1],[0],[0],[1.2880789000000732],['target'],162,0,162,0,295.14596500000005,,,,,5,295.12674030000005,295.14596500000005,295.14596500000005,0.011831200000074205,296.4152444,[-0.45],[0.3425],[1],[0],[0],[1.2880789000000732],['target'],SK,2024-10-10_07h16.09.125,visualsearchtask,2024.2.1,59.942766646416935,2024-10-10 07h16.24.757143 +0530,
163,0,163,[0.09875],[0.05125],[1],[0],[0],[1.4840545999999222],['target'],163,0,163,0,296.44544110000004,,,,,5,296.42915519999997,296.44544110000004,296.44544110000004,0.01379420000000664,297.9136172,[0.09875],[0.05125],[1],[0],[0],[1.4840545999999222],['target'],SK,2024-10-10_07h16.09.125,visualsearchtask,2024.2.1,59.942766646416935,2024-10-10 07h16.24.757143 +0530,
164,0,164,[-0.48125],[0.17375],[1],[0],[0],[1.453252799999973],['target'],164,0,164,0,297.94465920000005,,,,,5,297.9263347,297.94465920000005,297.94465920000005,0.012594199999966804,299.3799004,[-0.48125],[0.17375],[1],[0],[0],[1.453252799999973],['target'],SK,2024-10-10_07h16.09.125,visualsearchtask,2024.2.1,59.942766646416935,2024-10-10 07h16.24.757143 +0530,
165,0,165,[-0.4025],[0.32625],[1],[0],[0],[1.4052510000000211],['target'],165,0,165,0,299.4186906,,,,,10,299.4065021,299.4186906,299.4186906,0.026429300000017975,300.8121006,[-0.4025],[0.32625],[1],[0],[0],[1.4052510000000211],['target'],SK,2024-10-10_07h16.09.125,visualsearchtask,2024.2.1,59.942766646416935,2024-10-10 07h16.24.757143 +0530,
166,0,166,[0.0725],[0.305],[1],[0],[0],[1.3688920999999254],['target'],166,0,166,0,300.8443992,,,,,5,300.82596309999997,300.8443992,300.8443992,0.013639300000022558,302.19519449999996,[0.0725],[0.305],[1],[0],[0],[1.3688920999999254],['target'],SK,2024-10-10_07h16.09.125,visualsearchtask,2024.2.1,59.942766646416935,2024-10-10 07h16.24.757143 +0530,
167,0,167,[0.06],[0.29375],[1],[0],[0],[1.3206025000000636],['target'],167,0,167,0,302.2260262,,,,,5,302.20718609999994,302.2260262,302.2260262,0.011867399999914596,303.5281727,[0.06],[0.29375],[1],[0],[0],[1.3206025000000636],['target'],SK,2024-10-10_07h16.09.125,visualsearchtask,2024.2.1,59.942766646416935,2024-10-10 07h16.24.757143 +0530,
168,0,168,[-0.255],[-0.02375],[1],[0],[0],[1.56959310000002],['target'],168,0,168,0,303.5595978,,,,,5,303.54047720000005,303.5595978,303.5595978,0.012142999999923632,305.11041709999995,[-0.255],[-0.02375],[1],[0],[0],[1.56959310000002],['target'],SK,2024-10-10_07h16.09.125,visualsearchtask,2024.2.1,59.942766646416935,2024-10-10 07h16.24.757143 +0530,
169,0,169,[-0.365],[0.11125],[1],[0],[0],[1.269529700000021],['target'],169,0,169,0,305.1413242,,,,,5,305.1228185,305.1413242,305.1413242,0.01227840000001379,306.3926778,[-0.365],[0.11125],[1],[0],[0],[1.269529700000021],['target'],SK,2024-10-10_07h16.09.125,visualsearchtask,2024.2.1,59.942766646416935,2024-10-10 07h16.24.757143 +0530,
170,0,170,[0.295],[0.27375],[1],[0],[0],[1.3046113999999989],['target'],170,0,170,0,306.4247627,,,,,5,306.4048779,306.4247627,306.4247627,0.012036999999963882,307.7098992,[0.295],[0.27375],[1],[0],[0],[1.3046113999999989],['target'],SK,2024-10-10_07h16.09.125,visualsearchtask,2024.2.1,59.942766646416935,2024-10-10 07h16.24.757143 +0530,
171,0,171,[0.21625],[-0.39625],[1],[0],[0],[1.820072200000027],['target'],171,0,171,0,307.74040049999996,,,,,5,307.72201199999995,307.74040049999996,307.74040049999996,0.011981600000012804,309.54245249999997,[0.21625],[-0.39625],[1],[0],[0],[1.820072200000027],['target'],SK,2024-10-10_07h16.09.125,visualsearchtask,2024.2.1,59.942766646416935,2024-10-10 07h16.24.757143 +0530,
172,0,172,[0.335],[-0.25625],[1],[0],[0],[1.136243600000057],['target'],172,0,172,0,309.57297140000003,,,,,5,309.55459470000005,309.57297140000003,309.57297140000003,0.012008400000013353,310.69118030000004,[0.335],[-0.25625],[1],[0],[0],[1.136243600000057],['target'],SK,2024-10-10_07h16.09.125,visualsearchtask,2024.2.1,59.942766646416935,2024-10-10 07h16.24.757143 +0530,
173,0,173,[-0.13875],[-0.05375],[1],[0],[0],[1.4588543999999501],['target'],173,0,173,0,310.72673310000005,,,,,10,310.7147841,310.72673310000005,310.72673310000005,0.02347640000004958,312.17398419999995,[-0.13875],[-0.05375],[1],[0],[0],[1.4588543999999501],['target'],SK,2024-10-10_07h16.09.125,visualsearchtask,2024.2.1,59.942766646416935,2024-10-10 07h16.24.757143 +0530,
174,0,174,[-0.44],[0.2725],[1],[0],[0],[1.7704354999999623],['target'],174,0,174,0,312.20503970000004,,,,,5,312.18590070000005,312.20503970000004,312.20503970000004,0.011758199999917451,313.95670829999995,[-0.44],[0.2725],[1],[0],[0],[1.7704354999999623],['target'],SK,2024-10-10_07h16.09.125,visualsearchtask,2024.2.1,59.942766646416935,2024-10-10 07h16.24.757143 +0530,
175,0,175,[-0.21625],[0.37875],[1],[0],[0],[1.4748858000000382],['target'],175,0,175,0,313.9923348,,,,,10,313.98076160000005,313.9923348,313.9923348,0.023923699999954806,315.4560689,[-0.21625],[0.37875],[1],[0],[0],[1.4748858000000382],['target'],SK,2024-10-10_07h16.09.125,visualsearchtask,2024.2.1,59.942766646416935,2024-10-10 07h16.24.757143 +0530,
176,0,176,[0.37375],[0.0975],[1],[0],[0],[2.0917780999999422],['target'],176,0,176,0,315.49134690000005,,,,,10,315.47965509999995,315.49134690000005,315.49134690000005,0.023404099999993377,317.571787,[0.37375],[0.0975],[1],[0],[0],[2.0917780999999422],['target'],SK,2024-10-10_07h16.09.125,visualsearchtask,2024.2.1,59.942766646416935,2024-10-10 07h16.24.757143 +0530,
177,0,177,[-0.155],[-0.38375],[1],[0],[0],[1.9068982999999662],['target'],177,0,177,0,317.6094564,,,,,10,317.59692559999996,317.6094564,317.6094564,0.02492619999998169,319.5041708,[-0.155],[-0.38375],[1],[0],[0],[1.9068982999999662],['target'],SK,2024-10-10_07h16.09.125,visualsearchtask,2024.2.1,59.942766646416935,2024-10-10 07h16.24.757143 +0530,
178,0,178,[-0.375],[-0.185],[1],[0],[0],[1.8681930000000193],['target'],178,0,178,0,319.53602090000004,,,,,5,319.5186555,319.53602090000004,319.53602090000004,0.014289899999994304,321.38719979999996,[-0.375],[-0.185],[1],[0],[0],[1.8681930000000193],['target'],SK,2024-10-10_07h16.09.125,visualsearchtask,2024.2.1,59.942766646416935,2024-10-10 07h16.24.757143 +0530,
179,0,179,[-0.39375],[-0.35125],[1],[0],[0],[2.1196261999999706],['target'],179,0,179,0,321.41776930000003,,,,,5,321.3990834,321.41776930000003,321.41776930000003,0.011785299999928611,323.51907719999997,[-0.39375],[-0.35125],[1],[0],[0],[2.1196261999999706],['target'],SK,2024-10-10_07h16.09.125,visualsearchtask,2024.2.1,59.942766646416935,2024-10-10 07h16.24.757143 +0530,
180,0,180,[0.21],[-0.07875],[1],[0],[0],[2.919633699999963],['target'],180,0,180,0,323.55025479999995,,,,,5,323.5316699,323.55025479999995,323.55025479999995,0.012467200000060075,326.45178280000005,[0.21],[-0.07875],[1],[0],[0],[2.919633699999963],['target'],SK,2024-10-10_07h16.09.125,visualsearchtask,2024.2.1,59.942766646416935,2024-10-10 07h16.24.757143 +0530,
181,0,181,[0.04625],[-0.045],[1],[0],[0],[4.972529300000019],['target'],181,0,181,0,326.488514,,,,,10,326.476134,326.488514,326.488514,0.02422260000003007,331.4490187,[0.04625],[-0.045],[1],[0],[0],[4.972529300000019],['target'],SK,2024-10-10_07h16.09.125,visualsearchtask,2024.2.1,59.942766646416935,2024-10-10 07h16.24.757143 +0530,
182,0,182,[-0.1375],[-0.1175],[1],[0],[0],[1.383703100000048],['target'],182,0,182,0,331.4801221,,,,,5,331.46534610000003,331.4801221,331.4801221,0.016124999999988177,332.8494081,[-0.1375],[-0.1175],[1],[0],[0],[1.383703100000048],['target'],SK,2024-10-10_07h16.09.125,visualsearchtask,2024.2.1,59.942766646416935,2024-10-10 07h16.24.757143 +0530,
183,0,183,[-0.26],[-0.44375],[1],[0],[0],[2.1389720000000807],['target'],183,0,183,0,332.8901439,,,,,10,332.8753845,332.8901439,332.8901439,0.02585799999997107,335.01477050000005,[-0.26],[-0.44375],[1],[0],[0],[2.1389720000000807],['target'],SK,2024-10-10_07h16.09.125,visualsearchtask,2024.2.1,59.942766646416935,2024-10-10 07h16.24.757143 +0530,
184,0,184,[0.095],[-0.09125],[1],[0],[0],[1.950050899999951],['target'],184,0,184,0,335.0460451,,,,,5,335.03073670000003,335.0460451,335.0460451,0.015697499999987485,336.9812018,[0.095],[-0.09125],[1],[0],[0],[1.950050899999951],['target'],SK,2024-10-10_07h16.09.125,visualsearchtask,2024.2.1,59.942766646416935,2024-10-10 07h16.24.757143 +0530,
185,0,185,[-0.47125],[-0.47],[1],[0],[0],[2.52453689999993],['target'],185,0,185,0,337.0158116,,,,,10,337.00397239999995,337.0158116,337.0158116,0.022638000000029024,339.5289007,[-0.47125],[-0.47],[1],[0],[0],[2.52453689999993],['target'],SK,2024-10-10_07h16.09.125,visualsearchtask,2024.2.1,59.942766646416935,2024-10-10 07h16.24.757143 +0530,
186,0,186,[0.155],[-0.43375],[1],[0],[0],[2.433649800000012],['target'],186,0,186,0,339.5602126,,,,,5,339.5437555,339.5602126,339.5602126,0.014635200000043369,341.9777788,[0.155],[-0.43375],[1],[0],[0],[2.433649800000012],['target'],SK,2024-10-10_07h16.09.125,visualsearchtask,2024.2.1,59.942766646416935,2024-10-10 07h16.24.757143 +0530,
187,0,187,[0.21625],[-0.2],[1],[0],[0],[1.385074500000087],['target'],187,0,187,0,342.0093544,,,,,5,341.9921405,342.0093544,342.0093544,0.014200100000039129,343.37756820000004,[0.21625],[-0.2],[1],[0],[0],[1.385074500000087],['target'],SK,2024-10-10_07h16.09.125,visualsearchtask,2024.2.1,59.942766646416935,2024-10-10 07h16.24.757143 +0530,
188,0,188,[0.33875],[0.02375],[1],[0],[0],[1.2374293999999963],['target'],188,0,188,0,343.4086787,,,,,5,343.38954579999995,343.4086787,343.4086787,0.011841700000104538,344.6273275,[0.33875],[0.02375],[1],[0],[0],[1.2374293999999963],['target'],SK,2024-10-10_07h16.09.125,visualsearchtask,2024.2.1,59.942766646416935,2024-10-10 07h16.24.757143 +0530,
189,0,189,[-0.495],[0.2325],[1],[0],[0],[1.4494009999999662],['target'],189,0,189,0,344.65802610000003,,,,,5,344.6429974,344.65802610000003,344.65802610000003,0.015511399999923015,346.0927358,[-0.495],[0.2325],[1],[0],[0],[1.4494009999999662],['target'],SK,2024-10-10_07h16.09.125,visualsearchtask,2024.2.1,59.942766646416935,2024-10-10 07h16.24.757143 +0530,
190,0,190,[-0.45125],[-0.1625],[1],[0],[0],[1.3420385000000579],['target'],190,0,190,0,346.12829550000004,,,,,10,346.1163298,346.12829550000004,346.12829550000004,0.02345490000004702,347.45880650000004,[-0.45125],[-0.1625],[1],[0],[0],[1.3420385000000579],['target'],SK,2024-10-10_07h16.09.125,visualsearchtask,2024.2.1,59.942766646416935,2024-10-10 07h16.24.757143 +0530,
191,0,191,[0.2025],[0.28],[1],[0],[0],[1.404164700000024],['target'],191,0,191,0,347.48985300000004,,,,,5,347.4711635,347.48985300000004,347.48985300000004,0.01217440000004899,348.87569859999996,[0.2025],[0.28],[1],[0],[0],[1.404164700000024],['target'],SK,2024-10-10_07h16.09.125,visualsearchtask,2024.2.1,59.942766646416935,2024-10-10 07h16.24.757143 +0530,
192,0,192,[-0.28125],[-0.14625],[1],[0],[0],[2.0017749999999523],['target'],192,0,192,0,348.98003329999995,,,,,5,348.88876730000004,348.98003329999995,348.98003329999995,0.012940699999944627,350.8909215,[-0.28125],[-0.14625],[1],[0],[0],[2.0017749999999523],['target'],SK,2024-10-10_07h16.09.125,visualsearchtask,2024.2.1,59.942766646416935,2024-10-10 07h16.24.757143 +0530,
193,0,193,[0.42125],[0.195],[1],[0],[0],[1.859267100000011],['target'],193,0,193,0,350.92717930000003,,,,,10,350.91450840000005,350.92717930000003,350.92717930000003,0.02345839999998134,352.77420470000004,[0.42125],[0.195],[1],[0],[0],[1.859267100000011],['target'],SK,2024-10-10_07h16.09.125,visualsearchtask,2024.2.1,59.942766646416935,2024-10-10 07h16.24.757143 +0530,
194,0,194,[0.32],[-0.33875],[1],[0],[0],[1.991561000000047],['target'],194,0,194,0,352.80903309999997,,,,,10,352.79727,352.80903309999997,352.80903309999997,0.022903199999973367,354.78917149999995,[0.32],[-0.33875],[1],[0],[0],[1.991561000000047],['target'],SK,2024-10-10_07h16.09.125,visualsearchtask,2024.2.1,59.942766646416935,2024-10-10 07h16.24.757143 +0530,
195,0,195,[0.1525],[0.11375],[1],[0],[0],[1.2680515999999216],['target'],195,0,195,0,354.82103989999996,,,,,5,354.80404380000004,354.82103989999996,354.82103989999996,0.014659199999982775,356.07242010000004,[0.1525],[0.11375],[1],[0],[0],[1.2680515999999216],['target'],SK,2024-10-10_07h16.09.125,visualsearchtask,2024.2.1,59.942766646416935,2024-10-10 07h16.24.757143 +0530,
196,0,196,[-0.29],[-0.20375],[1],[0],[0],[2.0026182999999946],['target'],196,0,196,0,356.10363140000004,,,,,5,356.0849333,356.10363140000004,356.10363140000004,0.012399100000038743,358.0879609,[-0.29],[-0.20375],[1],[0],[0],[2.0026182999999946],['target'],SK,2024-10-10_07h16.09.125,visualsearchtask,2024.2.1,59.942766646416935,2024-10-10 07h16.24.757143 +0530,
197,0,197,[0.1775],[0.075],[1],[0],[0],[1.3917866000000458],['target'],197,0,197,0,358.12401250000005,,,,,10,358.11154079999994,358.12401250000005,358.12401250000005,0.023430999999959568,359.5037549,[0.1775],[0.075],[1],[0],[0],[1.3917866000000458],['target'],SK,2024-10-10_07h16.09.125,visualsearchtask,2024.2.1,59.942766646416935,2024-10-10 07h16.24.757143 +0530,
198,0,198,[-0.2625],[-0.40875],[1],[0],[0],[2.402839800000038],['target'],198,0,198,0,359.5346945,,,,,5,359.5164327,359.5346945,359.5346945,0.01248150000003534,361.91964640000003,[-0.2625],[-0.40875],[1],[0],[0],[2.402839800000038],['target'],SK,2024-10-10_07h16.09.125,visualsearchtask,2024.2.1,59.942766646416935,2024-10-10 07h16.24.757143 +0530,
199,0,199,[0.27875],[-0.135],[1],[0],[0],[1.5004083999999693],['target'],199,0,199,0,361.950595,,,,,5,361.9345336,361.950595,361.950595,0.014724699999987934,363.435288,[0.27875],[-0.135],[1],[0],[0],[1.5004083999999693],['target'],SK,2024-10-10_07h16.09.125,visualsearchtask,2024.2.1,59.942766646416935,2024-10-10 07h16.24.757143 +0530,
