thisN,thisTrialN,thisRepN,mouse.x,mouse.y,mouse.leftButton,mouse.midButton,mouse.rightButton,mouse.time,mouse.clicked_name,trials.thisRepN,trials.thisTrialN,trials.thisN,trials.thisIndex,thisRow.t,notes,Instructions.started,text.started,Instructions.stopped,num_distr,trial.started,fixation.started,target.started,mouse.started,trial.stopped,trials.mouse.x,trials.mouse.y,trials.mouse.leftButton,trials.mouse.midButton,trials.mouse.rightButton,trials.mouse.time,trials.mouse.clicked_name,participant,date,expName,psychopyVersion,frameRate,expStart,
,,,,,,,,,,,,,,,,0.04026100016199052,0.056959900073707104,7.0045666000805795,,,,,,,,,,,,,,003nutan,2024-10-04_11h37.02.739,visualsearchtask,2024.2.1,59.73362392143045,2024-10-04 11h37.16.585010 +0530,
0,0,0,[-0.235],[-0.1],[1],[0],[0],[3.5668906001374125],['target'],0,0,0,0,7.05199269996956,,,,,10,7.035779000027105,7.05199269996956,7.05199269996956,0.03550500003620982,10.603067700052634,[-0.235],[-0.1],[1],[0],[0],[3.5668906001374125],['target'],003nutan,2024-10-04_11h37.02.739,visualsearchtask,2024.2.1,59.73362392143045,2024-10-04 11h37.16.585010 +0530,
1,0,1,[-0.31125],[0.45875],[1],[0],[0],[2.057061000028625],['target'],1,0,1,0,10.642232000129297,,,,,10,10.628668500110507,10.642232000129297,10.642232000129297,0.02544049988500774,12.686135000083596,[-0.31125],[0.45875],[1],[0],[0],[2.057061000028625],['target'],003nutan,2024-10-04_11h37.02.739,visualsearchtask,2024.2.1,59.73362392143045,2024-10-04 11h37.16.585010 +0530,
2,0,2,[0.45125],[0.3725],[1],[0],[0],[1.1509652000386268],['target'],2,0,2,0,12.716455599991605,,,,,5,12.700360200135037,12.716455599991605,12.716455599991605,0.014033999992534518,13.851730100112036,[0.45125],[0.3725],[1],[0],[0],[1.1509652000386268],['target'],003nutan,2024-10-04_11h37.02.739,visualsearchtask,2024.2.1,59.73362392143045,2024-10-04 11h37.16.585010 +0530,
3,0,3,[0.47],[0.32375],[1],[0],[0],[0.8021222001407295],['target'],3,0,3,0,13.883655100129545,,,,,5,13.867746599949896,13.883655100129545,13.883655100129545,0.01577619998715818,14.670195700135082,[0.47],[0.32375],[1],[0],[0],[0.8021222001407295],['target'],003nutan,2024-10-04_11h37.02.739,visualsearchtask,2024.2.1,59.73362392143045,2024-10-04 11h37.16.585010 +0530,
4,0,4,[-0.4325],[-0.27125],[1],[0],[0],[3.117640499956906],[None],4,0,4,0,14.71265839994885,,,,,10,14.698822200065479,14.71265839994885,14.71265839994885,0.028447899967432022,17.816809100098908,[-0.4325],[-0.27125],[1],[0],[0],[3.117640499956906],[None],003nutan,2024-10-04_11h37.02.739,visualsearchtask,2024.2.1,59.73362392143045,2024-10-04 11h37.16.585010 +0530,
5,0,5,[0.04625],[0.30625],[1],[0],[0],[1.8736167999450117],['target'],5,0,5,0,17.855246900115162,,,,,10,17.842444899957627,17.855246900115162,17.855246900115162,0.025488500017672777,19.71655820007436,[0.04625],[0.30625],[1],[0],[0],[1.8736167999450117],['target'],003nutan,2024-10-04_11h37.02.739,visualsearchtask,2024.2.1,59.73362392143045,2024-10-04 11h37.16.585010 +0530,
6,0,6,[0.4825],[-0.01625],[1],[0],[0],[1.4349875999614596],['target'],6,0,6,0,19.746909599984065,,,,,5,19.730069700162858,19.746909599984065,19.746909599984065,0.0133714999537915,21.165433099959046,[0.4825],[-0.01625],[1],[0],[0],[1.4349875999614596],['target'],003nutan,2024-10-04_11h37.02.739,visualsearchtask,2024.2.1,59.73362392143045,2024-10-04 11h37.16.585010 +0530,
7,0,7,[0.15125],[-0.43125],[1],[0],[0],[1.8257267998997122],['target'],7,0,7,0,21.202395200030878,,,,,10,21.188809900078923,21.202395200030878,21.202395200030878,0.023224199889227748,23.014885100070387,[0.15125],[-0.43125],[1],[0],[0],[1.8257267998997122],['target'],003nutan,2024-10-04_11h37.02.739,visualsearchtask,2024.2.1,59.73362392143045,2024-10-04 11h37.16.585010 +0530,
8,0,8,[-0.3275],[0.475],[1],[0],[0],[1.739009999902919],['target'],8,0,8,0,23.055147900013253,,,,,10,23.04134800005704,23.055147900013253,23.055147900013253,0.02624410018324852,24.78073770017363,[-0.3275],[0.475],[1],[0],[0],[1.739009999902919],['target'],003nutan,2024-10-04_11h37.02.739,visualsearchtask,2024.2.1,59.73362392143045,2024-10-04 11h37.16.585010 +0530,
9,0,9,[0.34],[0.11625],[1],[0],[0],[1.2723374001216143],['target'],9,0,9,0,24.821612500119954,,,,,10,24.806956500047818,24.821612500119954,24.821612500119954,0.026074999943375587,26.079710999969393,[0.34],[0.11625],[1],[0],[0],[1.2723374001216143],['target'],003nutan,2024-10-04_11h37.02.739,visualsearchtask,2024.2.1,59.73362392143045,2024-10-04 11h37.16.585010 +0530,
10,0,10,[-0.48],[-0.10125],[1],[0],[0],[2.3411085999105126],[None],10,0,10,0,26.117564500076696,,,,,10,26.104322999948636,26.117564500076696,26.117564500076696,0.02442150004208088,28.445835700025782,[-0.48],[-0.10125],[1],[0],[0],[2.3411085999105126],[None],003nutan,2024-10-04_11h37.02.739,visualsearchtask,2024.2.1,59.73362392143045,2024-10-04 11h37.16.585010 +0530,
11,0,11,[0.0625],[0.40375],[1],[0],[0],[1.1170995000284165],[None],11,0,11,0,28.47650590003468,,,,,5,28.461420600069687,28.47650590003468,28.47650590003468,0.0153952999971807,29.578846900025383,[0.0625],[0.40375],[1],[0],[0],[1.1170995000284165],[None],003nutan,2024-10-04_11h37.02.739,visualsearchtask,2024.2.1,59.73362392143045,2024-10-04 11h37.16.585010 +0530,
12,0,12,[0.0675],[-0.42625],[1],[0],[0],[1.5182007001712918],['target'],12,0,12,0,29.60946199996397,,,,,5,29.592208200134337,29.60946199996397,29.60946199996397,0.013191599864512682,31.110769900027663,[0.0675],[-0.42625],[1],[0],[0],[1.5182007001712918],['target'],003nutan,2024-10-04_11h37.02.739,visualsearchtask,2024.2.1,59.73362392143045,2024-10-04 11h37.16.585010 +0530,
13,0,13,[-0.26625],[0.47],[1],[0],[0],[2.120470499852672],['target'],13,0,13,0,31.152856100117788,,,,,10,31.139117300044745,31.152856100117788,31.152856100117788,0.02816969994455576,33.25992490001954,[-0.26625],[0.47],[1],[0],[0],[2.120470499852672],['target'],003nutan,2024-10-04_11h37.02.739,visualsearchtask,2024.2.1,59.73362392143045,2024-10-04 11h37.16.585010 +0530,
14,0,14,[0.41875],[-0.1575],[1],[0],[0],[1.119658299954608],[None],14,0,14,0,33.2917212001048,,,,,5,33.27299470012076,33.2917212001048,33.2917212001048,0.012875100132077932,34.393033100059256,[0.41875],[-0.1575],[1],[0],[0],[1.119658299954608],[None],003nutan,2024-10-04_11h37.02.739,visualsearchtask,2024.2.1,59.73362392143045,2024-10-04 11h37.16.585010 +0530,
15,0,15,[0.29625],[0.415],[1],[0],[0],[1.268467100104317],[None],15,0,15,0,34.42394979996607,,,,,5,34.40673110005446,34.42394979996607,34.42394979996607,0.013580500148236752,35.675559299997985,[0.29625],[0.415],[1],[0],[0],[1.268467100104317],[None],003nutan,2024-10-04_11h37.02.739,visualsearchtask,2024.2.1,59.73362392143045,2024-10-04 11h37.16.585010 +0530,
16,0,16,[-0.3925],[-0.32125],[1],[0],[0],[0.953953200019896],[None],16,0,16,0,35.70829139999114,,,,,5,35.6880516000092,35.70829139999114,35.70829139999114,0.012334000086411834,36.64240540005267,[-0.3925],[-0.32125],[1],[0],[0],[0.953953200019896],[None],003nutan,2024-10-04_11h37.02.739,visualsearchtask,2024.2.1,59.73362392143045,2024-10-04 11h37.16.585010 +0530,
17,0,17,[0.17875],[-0.295],[1],[0],[0],[1.7033212000969797],[None],17,0,17,0,36.68368010013364,,,,,10,36.67082660016604,36.68368010013364,36.68368010013364,0.02827030001208186,38.374593400163576,[0.17875],[-0.295],[1],[0],[0],[1.7033212000969797],[None],003nutan,2024-10-04_11h37.02.739,visualsearchtask,2024.2.1,59.73362392143045,2024-10-04 11h37.16.585010 +0530,
18,0,18,[-0.14125],[-0.04875],[1],[0],[0],[1.3203448001295328],[None],18,0,18,0,38.40673559997231,,,,,5,38.38713930011727,38.40673559997231,38.40673559997231,0.012377700069919229,39.70787709997967,[-0.14125],[-0.04875],[1],[0],[0],[1.3203448001295328],[None],003nutan,2024-10-04_11h37.02.739,visualsearchtask,2024.2.1,59.73362392143045,2024-10-04 11h37.16.585010 +0530,
19,0,19,[0.09],[0.295],[1],[0],[0],[1.136626100167632],[None],19,0,19,0,39.75113070011139,,,,,10,39.73637380008586,39.75113070011139,39.75113070011139,0.028351800050586462,40.87335709994659,[0.09],[0.295],[1],[0],[0],[1.136626100167632],[None],003nutan,2024-10-04_11h37.02.739,visualsearchtask,2024.2.1,59.73362392143045,2024-10-04 11h37.16.585010 +0530,
20,0,20,[-0.09875],[0.46625],[1],[0],[0],[0.9387997998856008],['target'],20,0,20,0,40.91451489995234,,,,,10,40.90074920002371,40.91451489995234,40.91451489995234,0.02712209988385439,41.83987920009531,[-0.09875],[0.46625],[1],[0],[0],[0.9387997998856008],['target'],003nutan,2024-10-04_11h37.02.739,visualsearchtask,2024.2.1,59.73362392143045,2024-10-04 11h37.16.585010 +0530,
21,0,21,[0.35125],[0.48875],[1],[0],[0],[0.9549284998793155],[None],21,0,21,0,41.88229430001229,,,,,10,41.868303100112826,41.88229430001229,41.88229430001229,0.02829109993763268,42.8236452001147,[0.35125],[0.48875],[1],[0],[0],[0.9549284998793155],[None],003nutan,2024-10-04_11h37.02.739,visualsearchtask,2024.2.1,59.73362392143045,2024-10-04 11h37.16.585010 +0530,
22,0,22,[-0.1675],[0.28875],[1],[0],[0],[1.2343413000926375],['target'],22,0,22,0,42.85366480005905,,,,,5,42.83811360015534,42.85366480005905,42.85366480005905,0.014294099994003773,44.07291920017451,[-0.1675],[0.28875],[1],[0],[0],[1.2343413000926375],['target'],003nutan,2024-10-04_11h37.02.739,visualsearchtask,2024.2.1,59.73362392143045,2024-10-04 11h37.16.585010 +0530,
23,0,23,[-0.4575],[-0.06],[1],[0],[0],[1.103499900083989],['target'],23,0,23,0,44.114901000168175,,,,,10,44.10106040001847,44.114901000168175,44.114901000168175,0.02801819983869791,45.20494200009853,[-0.4575],[-0.06],[1],[0],[0],[1.103499900083989],['target'],003nutan,2024-10-04_11h37.02.739,visualsearchtask,2024.2.1,59.73362392143045,2024-10-04 11h37.16.585010 +0530,
24,0,24,[0.17375],[-0.12875],[1],[0],[0],[1.1524706000927836],['target'],24,0,24,0,45.236076900037006,,,,,5,45.218380599981174,45.236076900037006,45.236076900037006,0.013283500215038657,46.37115490017459,[0.17375],[-0.12875],[1],[0],[0],[1.1524706000927836],['target'],003nutan,2024-10-04_11h37.02.739,visualsearchtask,2024.2.1,59.73362392143045,2024-10-04 11h37.16.585010 +0530,
25,0,25,[0.18],[0.38],[1],[0],[0],[1.2186765999067575],['target'],25,0,25,0,46.40237380005419,,,,,5,46.384707200108096,46.40237380005419,46.40237380005419,0.013407199876382947,47.60374219994992,[0.18],[0.38],[1],[0],[0],[1.2186765999067575],['target'],003nutan,2024-10-04_11h37.02.739,visualsearchtask,2024.2.1,59.73362392143045,2024-10-04 11h37.16.585010 +0530,
26,0,26,[0.235],[-0.47],[1],[0],[0],[2.1870792999397963],['target'],26,0,26,0,47.635498699964955,,,,,5,47.6154291999992,47.635498699964955,47.635498699964955,0.011558499885722995,49.80294229998253,[0.235],[-0.47],[1],[0],[0],[2.1870792999397963],['target'],003nutan,2024-10-04_11h37.02.739,visualsearchtask,2024.2.1,59.73362392143045,2024-10-04 11h37.16.585010 +0530,
27,0,27,[0.285],[-0.18875],[1],[0],[0],[1.3885858999565244],['target'],27,0,27,0,49.8435394000262,,,,,10,49.829923199955374,49.8435394000262,49.8435394000262,0.026823899941518903,51.21897320006974,[0.285],[-0.18875],[1],[0],[0],[1.3885858999565244],['target'],003nutan,2024-10-04_11h37.02.739,visualsearchtask,2024.2.1,59.73362392143045,2024-10-04 11h37.16.585010 +0530,
28,0,28,[-0.355],[0.18625],[1],[0],[0],[1.2905481001362205],['target'],28,0,28,0,51.25784550001845,,,,,10,51.24450460006483,51.25784550001845,51.25784550001845,0.025379100115969777,52.53541100001894,[-0.355],[0.18625],[1],[0],[0],[1.2905481001362205],['target'],003nutan,2024-10-04_11h37.02.739,visualsearchtask,2024.2.1,59.73362392143045,2024-10-04 11h37.16.585010 +0530,
29,0,29,[-0.3775],[-0.36625],[1],[0],[0],[1.3055387998465449],[None],29,0,29,0,52.576164399972185,,,,,10,52.56264599994756,52.576164399972185,52.576164399972185,0.027085999958217144,53.868553600041196,[-0.3775],[-0.36625],[1],[0],[0],[1.3055387998465449],[None],003nutan,2024-10-04_11h37.02.739,visualsearchtask,2024.2.1,59.73362392143045,2024-10-04 11h37.16.585010 +0530,
30,0,30,[-0.3125],[0.16],[1],[0],[0],[1.1335877000819892],['target'],30,0,30,0,53.898729800013825,,,,,5,53.88333510002121,53.898729800013825,53.898729800013825,0.014578400179743767,55.01736130006611,[-0.3125],[0.16],[1],[0],[0],[1.1335877000819892],['target'],003nutan,2024-10-04_11h37.02.739,visualsearchtask,2024.2.1,59.73362392143045,2024-10-04 11h37.16.585010 +0530,
31,0,31,[0.34],[0.19875],[1],[0],[0],[1.2086883999872953],[None],31,0,31,0,55.05409210012294,,,,,10,55.040878100087866,55.05409210012294,55.05409210012294,0.023370600072667003,56.249976200051606,[0.34],[0.19875],[1],[0],[0],[1.2086883999872953],[None],003nutan,2024-10-04_11h37.02.739,visualsearchtask,2024.2.1,59.73362392143045,2024-10-04 11h37.16.585010 +0530,
32,0,32,[0.32875],[0.22125],[1],[0],[0],[0.7355011000763625],['target'],32,0,32,0,56.28107809997164,,,,,5,56.26362149999477,56.28107809997164,56.28107809997164,0.013482399983331561,56.99944239994511,[0.32875],[0.22125],[1],[0],[0],[0.7355011000763625],['target'],003nutan,2024-10-04_11h37.02.739,visualsearchtask,2024.2.1,59.73362392143045,2024-10-04 11h37.16.585010 +0530,
33,0,33,[-0.37125],[0.01125],[1],[0],[0],[0.990318699972704],[None],33,0,33,0,57.04027600004338,,,,,10,57.02594940015115,57.04027600004338,57.04027600004338,0.02637850004248321,58.01663410011679,[-0.37125],[0.01125],[1],[0],[0],[0.990318699972704],[None],003nutan,2024-10-04_11h37.02.739,visualsearchtask,2024.2.1,59.73362392143045,2024-10-04 11h37.16.585010 +0530,
34,0,34,[0.46625],[0.25],[1],[0],[0],[1.0862680999562144],['target'],34,0,34,0,58.04732020013034,,,,,5,58.02955160010606,58.04732020013034,58.04732020013034,0.01275090011768043,59.11616330011748,[0.46625],[0.25],[1],[0],[0],[1.0862680999562144],['target'],003nutan,2024-10-04_11h37.02.739,visualsearchtask,2024.2.1,59.73362392143045,2024-10-04 11h37.16.585010 +0530,
35,0,35,[0.18625],[-0.34125],[1],[0],[0],[1.3700630001258105],['target'],35,0,35,0,59.15836840006523,,,,,10,59.14468499994837,59.15836840006523,59.15836840006523,0.028358499985188246,60.51508340006694,[0.18625],[-0.34125],[1],[0],[0],[1.3700630001258105],['target'],003nutan,2024-10-04_11h37.02.739,visualsearchtask,2024.2.1,59.73362392143045,2024-10-04 11h37.16.585010 +0530,
36,0,36,[0.455],[-0.23375],[1],[0],[0],[1.1746606000233442],['target'],36,0,36,0,60.55428050016053,,,,,10,60.53971919999458,60.55428050016053,60.55428050016053,0.024500399827957153,61.714766800170764,[0.455],[-0.23375],[1],[0],[0],[1.1746606000233442],['target'],003nutan,2024-10-04_11h37.02.739,visualsearchtask,2024.2.1,59.73362392143045,2024-10-04 11h37.16.585010 +0530,
37,0,37,[-0.055],[0.16],[1],[0],[0],[1.1243425998836756],['target'],37,0,37,0,61.754876600112766,,,,,10,61.74159720004536,61.754876600112766,61.754876600112766,0.026626500068232417,62.86637199996039,[-0.055],[0.16],[1],[0],[0],[1.1243425998836756],['target'],003nutan,2024-10-04_11h37.02.739,visualsearchtask,2024.2.1,59.73362392143045,2024-10-04 11h37.16.585010 +0530,
38,0,38,[0.29875],[0.11625],[1],[0],[0],[0.8615904999896884],['target'],38,0,38,0,62.930677300086245,,,,,10,62.90352940000594,62.930677300086245,62.930677300086245,0.03697520005516708,63.76551950001158,[0.29875],[0.11625],[1],[0],[0],[0.8615904999896884],['target'],003nutan,2024-10-04_11h37.02.739,visualsearchtask,2024.2.1,59.73362392143045,2024-10-04 11h37.16.585010 +0530,
39,0,39,[0.26875],[-0.37375],[1],[0],[0],[0.9400421001482755],[None],39,0,39,0,63.80541110015474,,,,,10,63.78986350004561,63.80541110015474,63.80541110015474,0.024087500059977174,64.73022769996896,[0.26875],[-0.37375],[1],[0],[0],[0.9400421001482755],[None],003nutan,2024-10-04_11h37.02.739,visualsearchtask,2024.2.1,59.73362392143045,2024-10-04 11h37.16.585010 +0530,
40,0,40,[0.14],[0.22],[1],[0],[0],[0.8835662000346929],['target'],40,0,40,0,64.76068240008317,,,,,5,64.74540650006384,64.76068240008317,64.76068240008317,0.014972200151532888,65.62943079997785,[0.14],[0.22],[1],[0],[0],[0.8835662000346929],['target'],003nutan,2024-10-04_11h37.02.739,visualsearchtask,2024.2.1,59.73362392143045,2024-10-04 11h37.16.585010 +0530,
41,0,41,[0.42875],[0.1375],[1],[0],[0],[0.9419484999962151],['target'],41,0,41,0,65.66628820006736,,,,,10,65.6532716001384,65.66628820006736,65.66628820006736,0.02371139987371862,66.5956421000883,[0.42875],[0.1375],[1],[0],[0],[0.9419484999962151],['target'],003nutan,2024-10-04_11h37.02.739,visualsearchtask,2024.2.1,59.73362392143045,2024-10-04 11h37.16.585010 +0530,
42,0,42,[0.435],[-0.42375],[1],[0],[0],[2.0729324999265373],['target'],42,0,42,0,66.63503570016474,,,,,10,66.62179490015842,66.63503570016474,66.63503570016474,0.025935000041499734,68.69509860011749,[0.435],[-0.42375],[1],[0],[0],[2.0729324999265373],['target'],003nutan,2024-10-04_11h37.02.739,visualsearchtask,2024.2.1,59.73362392143045,2024-10-04 11h37.16.585010 +0530,
43,0,43,[-0.1275],[-0.35625],[1],[0],[0],[1.6673635998740792],['target'],43,0,43,0,68.72584470012225,,,,,5,68.70961490017362,68.72584470012225,68.72584470012225,0.014317500172182918,70.37735810014419,[-0.1275],[-0.35625],[1],[0],[0],[1.6673635998740792],['target'],003nutan,2024-10-04_11h37.02.739,visualsearchtask,2024.2.1,59.73362392143045,2024-10-04 11h37.16.585010 +0530,
44,0,44,[0.32625],[0.14875],[1],[0],[0],[1.2559213999193162],['target'],44,0,44,0,70.41783290007152,,,,,10,70.40382859995589,70.41783290007152,70.41783290007152,0.02631980017758906,71.66012140014209,[0.32625],[0.14875],[1],[0],[0],[1.2559213999193162],['target'],003nutan,2024-10-04_11h37.02.739,visualsearchtask,2024.2.1,59.73362392143045,2024-10-04 11h37.16.585010 +0530,
45,0,45,[0.29125],[0.15625],[1],[0],[0],[1.170462999958545],[None],45,0,45,0,71.6913139000535,,,,,5,71.67258560005575,71.6913139000535,71.6913139000535,0.01231909985654056,72.84343090001494,[0.29125],[0.15625],[1],[0],[0],[1.170462999958545],[None],003nutan,2024-10-04_11h37.02.739,visualsearchtask,2024.2.1,59.73362392143045,2024-10-04 11h37.16.585010 +0530,
46,0,46,[-0.4275],[-0.1925],[1],[0],[0],[1.2173510000575334],['target'],46,0,46,0,72.87388530001044,,,,,5,72.85820210003294,72.87388530001044,72.87388530001044,0.014614799991250038,74.07591270003468,[-0.4275],[-0.1925],[1],[0],[0],[1.2173510000575334],['target'],003nutan,2024-10-04_11h37.02.739,visualsearchtask,2024.2.1,59.73362392143045,2024-10-04 11h37.16.585010 +0530,
47,0,47,[0.43375],[0.39625],[1],[0],[0],[1.3713237000629306],['target'],47,0,47,0,74.10755009995773,,,,,5,74.08763990015723,74.10755009995773,74.10755009995773,0.011598800076171756,75.4593189000152,[0.43375],[0.39625],[1],[0],[0],[1.3713237000629306],['target'],003nutan,2024-10-04_11h37.02.739,visualsearchtask,2024.2.1,59.73362392143045,2024-10-04 11h37.16.585010 +0530,
48,0,48,[0.265],[-0.17125],[1],[0],[0],[3.088142299791798],[None],48,0,48,0,75.4976029000245,,,,,10,75.48458790010773,75.4976029000245,75.4976029000245,0.025088799884542823,78.57308770017698,[0.265],[-0.17125],[1],[0],[0],[3.088142299791798],[None],003nutan,2024-10-04_11h37.02.739,visualsearchtask,2024.2.1,59.73362392143045,2024-10-04 11h37.16.585010 +0530,
49,0,49,[0.36875],[0.3975],[1],[0],[0],[1.5575077999383211],[None],49,0,49,0,78.61127660004422,,,,,10,78.59779480006546,78.61127660004422,78.61127660004422,0.024533000076189637,80.15566779999062,[0.36875],[0.3975],[1],[0],[0],[1.5575077999383211],[None],003nutan,2024-10-04_11h37.02.739,visualsearchtask,2024.2.1,59.73362392143045,2024-10-04 11h37.16.585010 +0530,
50,0,50,[-0.215],[0.17625],[1],[0],[0],[0.873036399949342],[None],50,0,50,0,80.19416379998438,,,,,10,80.1822391001042,80.19416379998438,80.19416379998438,0.026426800061017275,81.05565430014394,[-0.215],[0.17625],[1],[0],[0],[0.873036399949342],[None],003nutan,2024-10-04_11h37.02.739,visualsearchtask,2024.2.1,59.73362392143045,2024-10-04 11h37.16.585010 +0530,
51,0,51,[0.37],[0.19125],[1],[0],[0],[1.0218873000703752],['target'],51,0,51,0,81.09655520017259,,,,,10,81.08305190014653,81.09655520017259,81.09655520017259,0.027253600070253015,82.1053071001079,[0.37],[0.19125],[1],[0],[0],[1.0218873000703752],['target'],003nutan,2024-10-04_11h37.02.739,visualsearchtask,2024.2.1,59.73362392143045,2024-10-04 11h37.16.585010 +0530,
52,0,52,[0.425],[0.12],[1],[0],[0],[1.590137799968943],['target'],52,0,52,0,82.14323469996452,,,,,10,82.13071670010686,82.14323469996452,82.14323469996452,0.02520899986848235,83.72122970013879,[0.425],[0.12],[1],[0],[0],[1.590137799968943],['target'],003nutan,2024-10-04_11h37.02.739,visualsearchtask,2024.2.1,59.73362392143045,2024-10-04 11h37.16.585010 +0530,
53,0,53,[-0.185],[-0.29],[1],[0],[0],[1.358292699791491],['target'],53,0,53,0,83.75711070001125,,,,,10,83.74509109999053,83.75711070001125,83.75711070001125,0.023675299948081374,85.10378310014494,[-0.185],[-0.29],[1],[0],[0],[1.358292699791491],['target'],003nutan,2024-10-04_11h37.02.739,visualsearchtask,2024.2.1,59.73362392143045,2024-10-04 11h37.16.585010 +0530,
54,0,54,[-0.35875],[-0.18125],[1],[0],[0],[1.5567538000177592],['target'],54,0,54,0,85.1421008000616,,,,,10,85.12917309999466,85.1421008000616,85.1421008000616,0.02519699977710843,86.68630159995519,[-0.35875],[-0.18125],[1],[0],[0],[1.5567538000177592],['target'],003nutan,2024-10-04_11h37.02.739,visualsearchtask,2024.2.1,59.73362392143045,2024-10-04 11h37.16.585010 +0530,
55,0,55,[-0.46125],[-0.235],[1],[0],[0],[1.3896202000323683],['target'],55,0,55,0,86.71737850015052,,,,,5,86.69887980003841,86.71737850015052,86.71737850015052,0.012436999939382076,88.08889800007455,[-0.46125],[-0.235],[1],[0],[0],[1.3896202000323683],['target'],003nutan,2024-10-04_11h37.02.739,visualsearchtask,2024.2.1,59.73362392143045,2024-10-04 11h37.16.585010 +0530,
56,0,56,[0.0575],[-0.26625],[1],[0],[0],[1.8359809999819845],['target'],56,0,56,0,88.12904330017045,,,,,10,88.11525290017016,88.12904330017045,88.12904330017045,0.026202599983662367,89.95158979995176,[0.0575],[-0.26625],[1],[0],[0],[1.8359809999819845],['target'],003nutan,2024-10-04_11h37.02.739,visualsearchtask,2024.2.1,59.73362392143045,2024-10-04 11h37.16.585010 +0530,
57,0,57,[-0.1275],[0.3025],[1],[0],[0],[1.8038339000195265],['target'],57,0,57,0,89.98262530006468,,,,,5,89.9631851001177,89.98262530006468,89.98262530006468,0.01145130000077188,91.76742890011519,[-0.1275],[0.3025],[1],[0],[0],[1.8038339000195265],['target'],003nutan,2024-10-04_11h37.02.739,visualsearchtask,2024.2.1,59.73362392143045,2024-10-04 11h37.16.585010 +0530,
58,0,58,[0.13375],[0.01375],[1],[0],[0],[2.10540290013887],['target'],58,0,58,0,91.80618440010585,,,,,10,91.79411320015788,91.80618440010585,91.80618440010585,0.02654019999317825,93.89986150013283,[0.13375],[0.01375],[1],[0],[0],[2.10540290013887],['target'],003nutan,2024-10-04_11h37.02.739,visualsearchtask,2024.2.1,59.73362392143045,2024-10-04 11h37.16.585010 +0530,
59,0,59,[0.07375],[0.01125],[1],[0],[0],[1.2408928000368178],['target'],59,0,59,0,93.93769520008937,,,,,10,93.92494729999453,93.93769520008937,93.93769520008937,0.024863700149580836,95.16616900009103,[0.07375],[0.01125],[1],[0],[0],[1.2408928000368178],['target'],003nutan,2024-10-04_11h37.02.739,visualsearchtask,2024.2.1,59.73362392143045,2024-10-04 11h37.16.585010 +0530,
60,0,60,[0.32375],[-0.48375],[1],[0],[0],[2.1396325998939574],['target'],60,0,60,0,95.20512960013002,,,,,10,95.19192300015129,95.20512960013002,95.20512960013002,0.02562729991041124,97.33189680008218,[0.32375],[-0.48375],[1],[0],[0],[2.1396325998939574],['target'],003nutan,2024-10-04_11h37.02.739,visualsearchtask,2024.2.1,59.73362392143045,2024-10-04 11h37.16.585010 +0530,
61,0,61,[0.315],[0.31875],[1],[0],[0],[1.6034943000413477],['target'],61,0,61,0,97.36331190005876,,,,,5,97.34457210008986,97.36331190005876,97.36331190005876,0.012535999994724989,98.94848609995097,[0.315],[0.31875],[1],[0],[0],[1.6034943000413477],['target'],003nutan,2024-10-04_11h37.02.739,visualsearchtask,2024.2.1,59.73362392143045,2024-10-04 11h37.16.585010 +0530,
62,0,62,[0.3525],[0.04875],[1],[0],[0],[1.466616600053385],['target'],62,0,62,0,98.97935610008426,,,,,5,98.96344710001722,98.97935610008426,98.97935610008426,0.014793800190091133,100.43040219997056,[0.3525],[0.04875],[1],[0],[0],[1.466616600053385],['target'],003nutan,2024-10-04_11h37.02.739,visualsearchtask,2024.2.1,59.73362392143045,2024-10-04 11h37.16.585010 +0530,
63,0,63,[0.16375],[0.33],[1],[0],[0],[1.3698519000317901],['target'],63,0,63,0,100.46183490008116,,,,,5,100.44280380010605,100.46183490008116,100.46183490008116,0.012288200203329325,101.81294530001469,[0.16375],[0.33],[1],[0],[0],[1.3698519000317901],['target'],003nutan,2024-10-04_11h37.02.739,visualsearchtask,2024.2.1,59.73362392143045,2024-10-04 11h37.16.585010 +0530,
64,0,64,[0.18125],[-0.105],[1],[0],[0],[2.3866584000643343],['target'],64,0,64,0,101.84496979997493,,,,,5,101.8250784999691,101.84496979997493,101.84496979997493,0.012010900070890784,104.2122023999691,[0.18125],[-0.105],[1],[0],[0],[2.3866584000643343],['target'],003nutan,2024-10-04_11h37.02.739,visualsearchtask,2024.2.1,59.73362392143045,2024-10-04 11h37.16.585010 +0530,
65,0,65,[0.18625],[0.2625],[1],[0],[0],[1.1536813001148403],['target'],65,0,65,0,104.24315730016679,,,,,5,104.22425170009956,104.24315730016679,104.24315730016679,0.011862799990922213,105.37831080006436,[0.18625],[0.2625],[1],[0],[0],[1.1536813001148403],['target'],003nutan,2024-10-04_11h37.02.739,visualsearchtask,2024.2.1,59.73362392143045,2024-10-04 11h37.16.585010 +0530,
66,0,66,[0.28125],[-0.2825],[1],[0],[0],[4.222412399947643],['target'],66,0,66,0,105.41649700002745,,,,,10,105.40409300010651,105.41649700002745,105.41649700002745,0.025638899998739362,109.62691970006563,[0.28125],[-0.2825],[1],[0],[0],[4.222412399947643],['target'],003nutan,2024-10-04_11h37.02.739,visualsearchtask,2024.2.1,59.73362392143045,2024-10-04 11h37.16.585010 +0530,
67,0,67,[0.275],[-0.305],[1],[0],[0],[1.0224178999196738],['target'],67,0,67,0,109.66612530010752,,,,,10,109.65330950007774,109.66612530010752,109.66612530010752,0.026239000027999282,110.67609470011666,[0.275],[-0.305],[1],[0],[0],[1.0224178999196738],['target'],003nutan,2024-10-04_11h37.02.739,visualsearchtask,2024.2.1,59.73362392143045,2024-10-04 11h37.16.585010 +0530,
68,0,68,[-0.1975],[0.13625],[1],[0],[0],[1.417761999880895],['target'],68,0,68,0,110.7076495999936,,,,,5,110.69097999995574,110.7076495999936,110.7076495999936,0.014685799833387136,112.10912030003965,[-0.1975],[0.13625],[1],[0],[0],[1.417761999880895],['target'],003nutan,2024-10-04_11h37.02.739,visualsearchtask,2024.2.1,59.73362392143045,2024-10-04 11h37.16.585010 +0530,
69,0,69,[0.36625],[0.455],[1],[0],[0],[2.2195119000971317],['target'],69,0,69,0,112.13961950014345,,,,,5,112.12168189999647,112.13961950014345,112.13961950014345,0.012448899913579226,114.341526000062,[0.36625],[0.455],[1],[0],[0],[2.2195119000971317],['target'],003nutan,2024-10-04_11h37.02.739,visualsearchtask,2024.2.1,59.73362392143045,2024-10-04 11h37.16.585010 +0530,
70,0,70,[-0.48875],[0.025],[1],[0],[0],[1.5535345000680536],['target'],70,0,70,0,114.38247940014116,,,,,10,114.36963420012034,114.38247940014116,114.38247940014116,0.027953399810940027,115.92349379998632,[-0.48875],[0.025],[1],[0],[0],[1.5535345000680536],['target'],003nutan,2024-10-04_11h37.02.739,visualsearchtask,2024.2.1,59.73362392143045,2024-10-04 11h37.16.585010 +0530,
71,0,71,[-0.21125],[-0.1775],[1],[0],[0],[1.273518200032413],[None],71,0,71,0,115.96468700002879,,,,,10,115.95034280000255,115.96468700002879,115.96468700002879,0.026708499994128942,117.22428880003281,[-0.21125],[-0.1775],[1],[0],[0],[1.273518200032413],[None],003nutan,2024-10-04_11h37.02.739,visualsearchtask,2024.2.1,59.73362392143045,2024-10-04 11h37.16.585010 +0530,
72,0,72,[-0.40375],[-0.24875],[1],[0],[0],[1.4027322998736054],['target'],72,0,72,0,117.25432369997725,,,,,5,117.23683109995909,117.25432369997725,117.25432369997725,0.01230309996753931,118.63990850001574,[-0.40375],[-0.24875],[1],[0],[0],[1.4027322998736054],['target'],003nutan,2024-10-04_11h37.02.739,visualsearchtask,2024.2.1,59.73362392143045,2024-10-04 11h37.16.585010 +0530,
73,0,73,[0.34375],[0.23375],[1],[0],[0],[1.3355369998607785],[None],73,0,73,0,118.67055399995297,,,,,5,118.6527911000885,118.67055399995297,118.67055399995297,0.012776500079780817,119.98871499998495,[0.34375],[0.23375],[1],[0],[0],[1.3355369998607785],[None],003nutan,2024-10-04_11h37.02.739,visualsearchtask,2024.2.1,59.73362392143045,2024-10-04 11h37.16.585010 +0530,
74,0,74,[-0.4025],[0.43375],[1],[0],[0],[1.7584985999856144],['target'],74,0,74,0,120.02483220002614,,,,,10,120.01233349996619,120.02483220002614,120.02483220002614,0.023423500126227736,121.7711646000389,[-0.4025],[0.43375],[1],[0],[0],[1.7584985999856144],['target'],003nutan,2024-10-04_11h37.02.739,visualsearchtask,2024.2.1,59.73362392143045,2024-10-04 11h37.16.585010 +0530,
75,0,75,[0.35125],[-0.31],[1],[0],[0],[1.8020554000977427],['target'],75,0,75,0,121.8131802000571,,,,,10,121.8012731000781,121.8131802000571,121.8131802000571,0.02988849999383092,123.60374920000322,[0.35125],[-0.31],[1],[0],[0],[1.8020554000977427],['target'],003nutan,2024-10-04_11h37.02.739,visualsearchtask,2024.2.1,59.73362392143045,2024-10-04 11h37.16.585010 +0530,
76,0,76,[0.2175],[-0.31875],[1],[0],[0],[1.1882532997988164],['target'],76,0,76,0,123.64451550017111,,,,,10,123.63143509998918,123.64451550017111,123.64451550017111,0.027533800108358264,124.8200829999987,[0.2175],[-0.31875],[1],[0],[0],[1.1882532997988164],['target'],003nutan,2024-10-04_11h37.02.739,visualsearchtask,2024.2.1,59.73362392143045,2024-10-04 11h37.16.585010 +0530,
77,0,77,[-0.33125],[-0.3325],[1],[0],[0],[1.3587110000662506],['target'],77,0,77,0,124.85610750014894,,,,,10,124.84376249997877,124.85610750014894,124.85610750014894,0.02353219990618527,126.20284270006232,[-0.33125],[-0.3325],[1],[0],[0],[1.3587110000662506],['target'],003nutan,2024-10-04_11h37.02.739,visualsearchtask,2024.2.1,59.73362392143045,2024-10-04 11h37.16.585010 +0530,
78,0,78,[0.06625],[-0.025],[1],[0],[0],[1.7505696001462638],['target'],78,0,78,0,126.23351259995252,,,,,5,126.21758510009386,126.23351259995252,126.23351259995252,0.01455239998176694,127.96850550011732,[0.06625],[-0.025],[1],[0],[0],[1.7505696001462638],['target'],003nutan,2024-10-04_11h37.02.739,visualsearchtask,2024.2.1,59.73362392143045,2024-10-04 11h37.16.585010 +0530,
79,0,79,[0.01625],[-0.4475],[1],[0],[0],[2.489768600091338],['target'],79,0,79,0,128.00617890013382,,,,,10,127.99409719998948,128.00617890013382,128.00617890013382,0.025434100069105625,130.484245599946,[0.01625],[-0.4475],[1],[0],[0],[2.489768600091338],['target'],003nutan,2024-10-04_11h37.02.739,visualsearchtask,2024.2.1,59.73362392143045,2024-10-04 11h37.16.585010 +0530,
80,0,80,[0.32125],[0.2525],[1],[0],[0],[1.0361305000260472],['target'],80,0,80,0,130.5158486000728,,,,,5,130.49747389997356,130.5158486000728,130.5158486000728,0.013096600072458386,131.53391350014135,[0.32125],[0.2525],[1],[0],[0],[1.0361305000260472],['target'],003nutan,2024-10-04_11h37.02.739,visualsearchtask,2024.2.1,59.73362392143045,2024-10-04 11h37.16.585010 +0530,
81,0,81,[0.36],[0.27875],[1],[0],[0],[1.3419881998561323],['target'],81,0,81,0,131.5697008999996,,,,,10,131.55733670014888,131.5697008999996,131.5697008999996,0.023300499888136983,132.89972220011987,[0.36],[0.27875],[1],[0],[0],[1.3419881998561323],['target'],003nutan,2024-10-04_11h37.02.739,visualsearchtask,2024.2.1,59.73362392143045,2024-10-04 11h37.16.585010 +0530,
82,0,82,[0.515],[0.21625],[1],[0],[0],[1.3263679998926818],['target'],82,0,82,0,132.93542080000043,,,,,10,132.9234083001502,132.93542080000043,132.93542080000043,0.023498900001868606,134.25013010017574,[0.515],[0.21625],[1],[0],[0],[1.3263679998926818],['target'],003nutan,2024-10-04_11h37.02.739,visualsearchtask,2024.2.1,59.73362392143045,2024-10-04 11h37.16.585010 +0530,
83,0,83,[-0.2975],[0.495],[1],[0],[0],[1.9028409000020474],[None],83,0,83,0,134.2809331000317,,,,,5,134.26200870005414,134.2809331000317,134.2809331000317,0.011743100127205253,136.16523180017248,[-0.2975],[0.495],[1],[0],[0],[1.9028409000020474],[None],003nutan,2024-10-04_11h37.02.739,visualsearchtask,2024.2.1,59.73362392143045,2024-10-04 11h37.16.585010 +0530,
84,0,84,[-0.39],[0.285],[1],[0],[0],[1.0051917999517173],['target'],84,0,84,0,136.20569170010276,,,,,10,136.19256879994646,136.20569170010276,136.20569170010276,0.027160600060597062,137.19970500003546,[-0.39],[0.285],[1],[0],[0],[1.0051917999517173],['target'],003nutan,2024-10-04_11h37.02.739,visualsearchtask,2024.2.1,59.73362392143045,2024-10-04 11h37.16.585010 +0530,
85,0,85,[0.4],[0.34],[1],[0],[0],[1.5210551000200212],[None],85,0,85,0,137.23875310015865,,,,,10,137.22590110008605,137.23875310015865,137.23875310015865,0.025980700040236115,138.74736699997447,[0.4],[0.34],[1],[0],[0],[1.5210551000200212],[None],003nutan,2024-10-04_11h37.02.739,visualsearchtask,2024.2.1,59.73362392143045,2024-10-04 11h37.16.585010 +0530,
86,0,86,[0.25875],[-0.0525],[1],[0],[0],[3.37294749985449],['target'],86,0,86,0,138.78667409997433,,,,,10,138.77366530010477,138.78667409997433,138.78667409997433,0.02612069994211197,142.14696210017428,[0.25875],[-0.0525],[1],[0],[0],[3.37294749985449],['target'],003nutan,2024-10-04_11h37.02.739,visualsearchtask,2024.2.1,59.73362392143045,2024-10-04 11h37.16.585010 +0530,
87,0,87,[-0.075],[-0.2025],[1],[0],[0],[3.9719810001552105],['target'],87,0,87,0,142.18459520000033,,,,,10,142.17173720011488,142.18459520000033,142.18459520000033,0.02463010000064969,146.14407390006818,[-0.075],[-0.2025],[1],[0],[0],[3.9719810001552105],['target'],003nutan,2024-10-04_11h37.02.739,visualsearchtask,2024.2.1,59.73362392143045,2024-10-04 11h37.16.585010 +0530,
88,0,88,[0.3875],[-0.38125],[1],[0],[0],[2.2402610999997705],[None],88,0,88,0,146.17565069999546,,,,,5,146.15593020012602,146.17565069999546,146.17565069999546,0.011667799903079867,148.39657380012795,[0.3875],[-0.38125],[1],[0],[0],[2.2402610999997705],[None],003nutan,2024-10-04_11h37.02.739,visualsearchtask,2024.2.1,59.73362392143045,2024-10-04 11h37.16.585010 +0530,
89,0,89,[-0.49625],[0.1],[1],[0],[0],[1.1485623999033123],['target'],89,0,89,0,148.42639000015333,,,,,5,148.41075540008023,148.42639000015333,148.42639000015333,0.014075600076466799,149.55968199996278,[-0.49625],[0.1],[1],[0],[0],[1.1485623999033123],['target'],003nutan,2024-10-04_11h37.02.739,visualsearchtask,2024.2.1,59.73362392143045,2024-10-04 11h37.16.585010 +0530,
90,0,90,[0.4075],[-0.14125],[1],[0],[0],[1.1027423001360148],[None],90,0,90,0,149.59018800011836,,,,,5,149.57232740009204,149.59018800011836,149.59018800011836,0.012546600075438619,150.67542650015093,[0.4075],[-0.14125],[1],[0],[0],[1.1027423001360148],[None],003nutan,2024-10-04_11h37.02.739,visualsearchtask,2024.2.1,59.73362392143045,2024-10-04 11h37.16.585010 +0530,
91,0,91,[-0.3075],[-0.30125],[1],[0],[0],[4.704072199994698],['target'],91,0,91,0,150.71564249997027,,,,,10,150.7024555001408,150.71564249997027,150.71564249997027,0.026906599989160895,155.40690400009044,[-0.3075],[-0.30125],[1],[0],[0],[4.704072199994698],['target'],003nutan,2024-10-04_11h37.02.739,visualsearchtask,2024.2.1,59.73362392143045,2024-10-04 11h37.16.585010 +0530,
92,0,92,[0.29375],[-0.06125],[1],[0],[0],[5.653252399992198],['target'],92,0,92,0,155.44646940007806,,,,,10,155.43403660017066,155.44646940007806,155.44646940007806,0.026993100065737963,161.08773200004362,[0.29375],[-0.06125],[1],[0],[0],[5.653252399992198],['target'],003nutan,2024-10-04_11h37.02.739,visualsearchtask,2024.2.1,59.73362392143045,2024-10-04 11h37.16.585010 +0530,
93,0,93,[0.28],[0.39125],[1],[0],[0],[5.872494300128892],['target'],93,0,93,0,161.124623300042,,,,,10,161.11191870016046,161.124623300042,161.124623300042,0.023961500031873584,166.9848053001333,[0.28],[0.39125],[1],[0],[0],[5.872494300128892],['target'],003nutan,2024-10-04_11h37.02.739,visualsearchtask,2024.2.1,59.73362392143045,2024-10-04 11h37.16.585010 +0530,
94,0,94,[0.36875],[0.48125],[1],[0],[0],[2.6554781999439],['target'],94,0,94,0,167.025186000159,,,,,10,167.01164650009014,167.025186000159,167.025186000159,0.026702400064095855,169.66742720012553,[0.36875],[0.48125],[1],[0],[0],[2.6554781999439],['target'],003nutan,2024-10-04_11h37.02.739,visualsearchtask,2024.2.1,59.73362392143045,2024-10-04 11h37.16.585010 +0530,
95,0,95,[0.05],[-0.41875],[1],[0],[0],[4.2695253998972476],[None],95,0,95,0,169.69896770012565,,,,,5,169.6796296001412,169.69896770012565,169.69896770012565,0.012061499990522861,173.94949669996276,[0.05],[-0.41875],[1],[0],[0],[4.2695253998972476],[None],003nutan,2024-10-04_11h37.02.739,visualsearchtask,2024.2.1,59.73362392143045,2024-10-04 11h37.16.585010 +0530,
96,0,96,[0.175],[0.12375],[1],[0],[0],[1.0366718999575824],['target'],96,0,96,0,173.980303700082,,,,,5,173.96184090012684,173.980303700082,173.980303700082,0.01223489991389215,174.9988826001063,[0.175],[0.12375],[1],[0],[0],[1.0366718999575824],['target'],003nutan,2024-10-04_11h37.02.739,visualsearchtask,2024.2.1,59.73362392143045,2024-10-04 11h37.16.585010 +0530,
97,0,97,[-0.235],[0.265],[1],[0],[0],[1.172612400026992],['target'],97,0,97,0,175.03716900013387,,,,,10,175.0247413001489,175.03716900013387,175.03716900013387,0.02572660008445382,176.1976895001717,[-0.235],[0.265],[1],[0],[0],[1.172612400026992],['target'],003nutan,2024-10-04_11h37.02.739,visualsearchtask,2024.2.1,59.73362392143045,2024-10-04 11h37.16.585010 +0530,
98,0,98,[-0.045],[0.105],[1],[0],[0],[5.089579799911007],['target'],98,0,98,0,176.23448610003106,,,,,10,176.22253579995595,176.23448610003106,176.23448610003106,0.024627499980852008,181.31250829994678,[-0.045],[0.105],[1],[0],[0],[5.089579799911007],['target'],003nutan,2024-10-04_11h37.02.739,visualsearchtask,2024.2.1,59.73362392143045,2024-10-04 11h37.16.585010 +0530,
99,0,99,[-0.1225],[0.13375],[1],[0],[0],[0.8682794999331236],['target'],99,0,99,0,181.3553891000338,,,,,10,181.34328990010545,181.3553891000338,181.3553891000338,0.03063819999806583,182.2119789000135,[-0.1225],[0.13375],[1],[0],[0],[0.8682794999331236],['target'],003nutan,2024-10-04_11h37.02.739,visualsearchtask,2024.2.1,59.73362392143045,2024-10-04 11h37.16.585010 +0530,
100,0,100,[-0.39125],[0.1925],[1],[0],[0],[1.9422291000373662],[None],100,0,100,0,182.2506818000693,,,,,10,182.2359538001474,182.2506818000693,182.2506818000693,0.023823400028049946,184.17864529998042,[-0.39125],[0.1925],[1],[0],[0],[1.9422291000373662],[None],003nutan,2024-10-04_11h37.02.739,visualsearchtask,2024.2.1,59.73362392143045,2024-10-04 11h37.16.585010 +0530,
101,0,101,[-0.0975],[0.4],[1],[0],[0],[1.6356596001423895],['target'],101,0,101,0,184.20883400016464,,,,,5,184.19108430016786,184.20883400016464,184.20883400016464,0.012272299965843558,185.82719160011038,[-0.0975],[0.4],[1],[0],[0],[1.6356596001423895],['target'],003nutan,2024-10-04_11h37.02.739,visualsearchtask,2024.2.1,59.73362392143045,2024-10-04 11h37.16.585010 +0530,
102,0,102,[-0.245],[0.05625],[1],[0],[0],[1.3553416000213474],['target'],102,0,102,0,185.86671790014952,,,,,10,185.85393410013057,185.86671790014952,185.86671790014952,0.02662040013819933,187.20964629994705,[-0.245],[0.05625],[1],[0],[0],[1.3553416000213474],['target'],003nutan,2024-10-04_11h37.02.739,visualsearchtask,2024.2.1,59.73362392143045,2024-10-04 11h37.16.585010 +0530,
103,0,103,[-0.3025],[-0.01125],[1],[0],[0],[4.755537000019103],[None],103,0,103,0,187.24766080011614,,,,,10,187.2351274001412,187.24766080011614,187.24766080011614,0.025280999951064587,191.9910642001778,[-0.3025],[-0.01125],[1],[0],[0],[4.755537000019103],[None],003nutan,2024-10-04_11h37.02.739,visualsearchtask,2024.2.1,59.73362392143045,2024-10-04 11h37.16.585010 +0530,
104,0,104,[0.4425],[0.1075],[1],[0],[0],[1.1182488000486046],['target'],104,0,104,0,192.02181000006385,,,,,5,192.00636969995685,192.02181000006385,192.02181000006385,0.01511969999410212,193.1250078000594,[0.4425],[0.1075],[1],[0],[0],[1.1182488000486046],['target'],003nutan,2024-10-04_11h37.02.739,visualsearchtask,2024.2.1,59.73362392143045,2024-10-04 11h37.16.585010 +0530,
105,0,105,[0.2425],[-0.355],[1],[0],[0],[2.173859099857509],['target'],105,0,105,0,193.16250570002012,,,,,10,193.1486140000634,193.16250570002012,193.16250570002012,0.023474799934774637,195.3228685001377,[0.2425],[-0.355],[1],[0],[0],[2.173859099857509],['target'],003nutan,2024-10-04_11h37.02.739,visualsearchtask,2024.2.1,59.73362392143045,2024-10-04 11h37.16.585010 +0530,
106,0,106,[0.3175],[-0.2725],[1],[0],[0],[1.7396545999217778],['target'],106,0,106,0,195.3621023001615,,,,,10,195.34921410004608,195.3621023001615,195.3621023001615,0.026205900125205517,197.08924180013128,[0.3175],[-0.2725],[1],[0],[0],[1.7396545999217778],['target'],003nutan,2024-10-04_11h37.02.739,visualsearchtask,2024.2.1,59.73362392143045,2024-10-04 11h37.16.585010 +0530,
107,0,107,[-0.475],[-0.15625],[1],[0],[0],[1.804879599949345],[None],107,0,107,0,197.12857550010085,,,,,10,197.11619079997763,197.12857550010085,197.12857550010085,0.02674750005826354,198.92153459996916,[-0.475],[-0.15625],[1],[0],[0],[1.804879599949345],[None],003nutan,2024-10-04_11h37.02.739,visualsearchtask,2024.2.1,59.73362392143045,2024-10-04 11h37.16.585010 +0530,
108,0,108,[0.2725],[0.0675],[1],[0],[0],[0.942441999912262],[None],108,0,108,0,198.95715479995124,,,,,10,198.94503400009125,198.95715479995124,198.95715479995124,0.023310899967327714,199.88785420008935,[0.2725],[0.0675],[1],[0],[0],[0.942441999912262],[None],003nutan,2024-10-04_11h37.02.739,visualsearchtask,2024.2.1,59.73362392143045,2024-10-04 11h37.16.585010 +0530,
109,0,109,[0.4175],[0.05625],[1],[0],[0],[0.8035166000481695],[None],109,0,109,0,199.91920870007016,,,,,5,199.90037470008247,199.91920870007016,199.91920870007016,0.012286500073969364,200.70422419998795,[0.4175],[0.05625],[1],[0],[0],[0.8035166000481695],[None],003nutan,2024-10-04_11h37.02.739,visualsearchtask,2024.2.1,59.73362392143045,2024-10-04 11h37.16.585010 +0530,
110,0,110,[-0.26125],[0.21125],[1],[0],[0],[1.3411975000053644],[None],110,0,110,0,200.74054650007747,,,,,10,200.7283894000575,200.74054650007747,200.74054650007747,0.024048899998888373,202.06997940014116,[-0.26125],[0.21125],[1],[0],[0],[1.3411975000053644],[None],003nutan,2024-10-04_11h37.02.739,visualsearchtask,2024.2.1,59.73362392143045,2024-10-04 11h37.16.585010 +0530,
111,0,111,[-0.34125],[0.265],[1],[0],[0],[0.7512451999355108],[None],111,0,111,0,202.10089500015602,,,,,5,202.0850059001241,202.10089500015602,202.10089500015602,0.014822900062426925,202.83659530011937,[-0.34125],[0.265],[1],[0],[0],[0.7512451999355108],[None],003nutan,2024-10-04_11h37.02.739,visualsearchtask,2024.2.1,59.73362392143045,2024-10-04 11h37.16.585010 +0530,
112,0,112,[-0.3525],[0.28625],[1],[0],[0],[0.7031586000230163],['target'],112,0,112,0,202.86792300012894,,,,,5,202.84918750007637,202.86792300012894,202.86792300012894,0.012476800009608269,203.55275680008344,[-0.3525],[0.28625],[1],[0],[0],[0.7031586000230163],['target'],003nutan,2024-10-04_11h37.02.739,visualsearchtask,2024.2.1,59.73362392143045,2024-10-04 11h37.16.585010 +0530,
113,0,113,[0.12875],[-0.38125],[1],[0],[0],[1.2172699999064207],[None],113,0,113,0,203.5837094001472,,,,,5,203.5681307001505,203.5837094001472,203.5837094001472,0.015235900180414319,204.78579150000587,[0.12875],[-0.38125],[1],[0],[0],[1.2172699999064207],[None],003nutan,2024-10-04_11h37.02.739,visualsearchtask,2024.2.1,59.73362392143045,2024-10-04 11h37.16.585010 +0530,
114,0,114,[-0.4475],[-0.46625],[1],[0],[0],[1.000604199944064],['target'],114,0,114,0,204.81670140009373,,,,,5,204.80101600009948,204.81670140009373,204.81670140009373,0.015050299931317568,205.8019831001293,[-0.4475],[-0.46625],[1],[0],[0],[1.000604199944064],['target'],003nutan,2024-10-04_11h37.02.739,visualsearchtask,2024.2.1,59.73362392143045,2024-10-04 11h37.16.585010 +0530,
115,0,115,[0.2075],[-0.07625],[1],[0],[0],[1.0580698000267148],['target'],115,0,115,0,205.83794440003112,,,,,10,205.82602020003833,205.83794440003112,205.83794440003112,0.023882900131866336,206.88446129998192,[0.2075],[-0.07625],[1],[0],[0],[1.0580698000267148],['target'],003nutan,2024-10-04_11h37.02.739,visualsearchtask,2024.2.1,59.73362392143045,2024-10-04 11h37.16.585010 +0530,
116,0,116,[0.2675],[-0.26375],[1],[0],[0],[0.7917489998508245],['target'],116,0,116,0,206.92076440015808,,,,,10,206.90878060017712,206.92076440015808,206.92076440015808,0.024170500226318836,207.70088230003603,[0.2675],[-0.26375],[1],[0],[0],[0.7917489998508245],['target'],003nutan,2024-10-04_11h37.02.739,visualsearchtask,2024.2.1,59.73362392143045,2024-10-04 11h37.16.585010 +0530,
117,0,117,[0.52125],[0.10125],[1],[0],[0],[1.1709116999991238],[None],117,0,117,0,207.73224720009603,,,,,5,207.71304049994797,207.73224720009603,207.73224720009603,0.012022600043565035,208.884326600004,[0.52125],[0.10125],[1],[0],[0],[1.1709116999991238],[None],003nutan,2024-10-04_11h37.02.739,visualsearchtask,2024.2.1,59.73362392143045,2024-10-04 11h37.16.585010 +0530,
118,0,118,[0.285],[-0.0125],[1],[0],[0],[1.070377100026235],[None],118,0,118,0,208.91483160015196,,,,,5,208.89630160015076,208.91483160015196,208.91483160015196,0.011829500086605549,209.96699470002204,[0.285],[-0.0125],[1],[0],[0],[1.070377100026235],[None],003nutan,2024-10-04_11h37.02.739,visualsearchtask,2024.2.1,59.73362392143045,2024-10-04 11h37.16.585010 +0530,
119,0,119,[0.14625],[-0.3825],[1],[0],[0],[1.4247898999601603],['target'],119,0,119,0,210.00376180000603,,,,,10,209.9908010000363,210.00376180000603,210.00376180000603,0.023676499957218766,211.4159975000657,[0.14625],[-0.3825],[1],[0],[0],[1.4247898999601603],['target'],003nutan,2024-10-04_11h37.02.739,visualsearchtask,2024.2.1,59.73362392143045,2024-10-04 11h37.16.585010 +0530,
120,0,120,[0.26125],[0.28625],[1],[0],[0],[1.159258499974385],['target'],120,0,120,0,211.45186260016635,,,,,10,211.43984930007719,211.45186260016635,211.45186260016635,0.023666799999773502,212.59947740007192,[0.26125],[0.28625],[1],[0],[0],[1.159258499974385],['target'],003nutan,2024-10-04_11h37.02.739,visualsearchtask,2024.2.1,59.73362392143045,2024-10-04 11h37.16.585010 +0530,
121,0,121,[-0.13875],[-0.2175],[1],[0],[0],[1.1394932998809963],['target'],121,0,121,0,212.62981509999372,,,,,5,212.6112852001097,212.62981509999372,212.62981509999372,0.011660299962386489,213.75119700003415,[-0.13875],[-0.2175],[1],[0],[0],[1.1394932998809963],['target'],003nutan,2024-10-04_11h37.02.739,visualsearchtask,2024.2.1,59.73362392143045,2024-10-04 11h37.16.585010 +0530,
122,0,122,[0.45125],[0.09],[1],[0],[0],[1.0782029000110924],['target'],122,0,122,0,213.81283980002627,,,,,10,213.78588490001857,213.81283980002627,213.81283980002627,0.03454629983752966,214.86440029996447,[0.45125],[0.09],[1],[0],[0],[1.0782029000110924],['target'],003nutan,2024-10-04_11h37.02.739,visualsearchtask,2024.2.1,59.73362392143045,2024-10-04 11h37.16.585010 +0530,
123,0,123,[0.51],[0.26],[1],[0],[0],[1.4894519001245499],['target'],123,0,123,0,214.90733630000614,,,,,10,214.8913233000785,214.90733630000614,214.90733630000614,0.026805000146850944,216.38118909997866,[0.51],[0.26],[1],[0],[0],[1.4894519001245499],['target'],003nutan,2024-10-04_11h37.02.739,visualsearchtask,2024.2.1,59.73362392143045,2024-10-04 11h37.16.585010 +0530,
124,0,124,[0.305],[-0.39],[1],[0],[0],[1.2367557000834495],[None],124,0,124,0,216.41190800000913,,,,,5,216.39294050005265,216.41190800000913,216.41190800000913,0.011590000009164214,217.63006860017776,[0.305],[-0.39],[1],[0],[0],[1.2367557000834495],[None],003nutan,2024-10-04_11h37.02.739,visualsearchtask,2024.2.1,59.73362392143045,2024-10-04 11h37.16.585010 +0530,
125,0,125,[-0.3575],[0.205],[1],[0],[0],[1.1448542000725865],['target'],125,0,125,0,217.66682250006124,,,,,10,217.6537950001657,217.66682250006124,217.66682250006124,0.02360390010289848,218.79914280003868,[-0.3575],[0.205],[1],[0],[0],[1.1448542000725865],['target'],003nutan,2024-10-04_11h37.02.739,visualsearchtask,2024.2.1,59.73362392143045,2024-10-04 11h37.16.585010 +0530,
126,0,126,[0.30875],[-0.43875],[1],[0],[0],[1.522218600148335],['target'],126,0,126,0,218.84403529996052,,,,,10,218.8233771000523,218.84403529996052,218.84403529996052,0.024070299929007888,220.34603850007989,[0.30875],[-0.43875],[1],[0],[0],[1.522218600148335],['target'],003nutan,2024-10-04_11h37.02.739,visualsearchtask,2024.2.1,59.73362392143045,2024-10-04 11h37.16.585010 +0530,
127,0,127,[0.3175],[0.46],[1],[0],[0],[1.0171475000679493],['target'],127,0,127,0,220.376514100004,,,,,5,220.36082420009188,220.376514100004,220.376514100004,0.014576900051906705,221.37832170003094,[0.3175],[0.46],[1],[0],[0],[1.0171475000679493],['target'],003nutan,2024-10-04_11h37.02.739,visualsearchtask,2024.2.1,59.73362392143045,2024-10-04 11h37.16.585010 +0530,
128,0,128,[0.0825],[0.31],[1],[0],[0],[1.125499099958688],['target'],128,0,128,0,221.41490670014173,,,,,10,221.4024201000575,221.41490670014173,221.41490670014173,0.02397680003196001,222.52829990000464,[0.0825],[0.31],[1],[0],[0],[1.125499099958688],['target'],003nutan,2024-10-04_11h37.02.739,visualsearchtask,2024.2.1,59.73362392143045,2024-10-04 11h37.16.585010 +0530,
129,0,129,[-0.22875],[-0.1675],[1],[0],[0],[1.0584580998402089],['target'],129,0,129,0,222.55943579995073,,,,,5,222.5400638000574,222.55943579995073,222.55943579995073,0.01161610009148717,223.59893740015104,[-0.22875],[-0.1675],[1],[0],[0],[1.0584580998402089],['target'],003nutan,2024-10-04_11h37.02.739,visualsearchtask,2024.2.1,59.73362392143045,2024-10-04 11h37.16.585010 +0530,
130,0,130,[0.38375],[0.065],[1],[0],[0],[1.1818146000150591],[None],130,0,130,0,223.62507180008106,,,,,5,223.61160639999434,223.62507180008106,223.62507180008106,0.012543800054118037,224.79379520006478,[0.38375],[0.065],[1],[0],[0],[1.1818146000150591],[None],003nutan,2024-10-04_11h37.02.739,visualsearchtask,2024.2.1,59.73362392143045,2024-10-04 11h37.16.585010 +0530,
131,0,131,[-0.305],[0.14875],[1],[0],[0],[1.046773999929428],[None],131,0,131,0,224.84589430014603,,,,,10,224.82923689996824,224.84589430014603,224.84589430014603,0.03526680008508265,225.87639049999416,[-0.305],[0.14875],[1],[0],[0],[1.046773999929428],[None],003nutan,2024-10-04_11h37.02.739,visualsearchtask,2024.2.1,59.73362392143045,2024-10-04 11h37.16.585010 +0530,
132,0,132,[0.36125],[-0.25],[1],[0],[0],[0.9678840001579374],[None],132,0,132,0,225.90733129996806,,,,,5,225.8911932001356,225.90733129996806,225.90733129996806,0.014631700003519654,226.85946820001118,[0.36125],[-0.25],[1],[0],[0],[0.9678840001579374],[None],003nutan,2024-10-04_11h37.02.739,visualsearchtask,2024.2.1,59.73362392143045,2024-10-04 11h37.16.585010 +0530,
133,0,133,[0.06125],[0.02125],[1],[0],[0],[0.9339087000116706],[None],133,0,133,0,226.89033429999836,,,,,5,226.87474010000005,226.89033429999836,226.89033429999836,0.01516750012524426,227.80902929999866,[0.06125],[0.02125],[1],[0],[0],[0.9339087000116706],[None],003nutan,2024-10-04_11h37.02.739,visualsearchtask,2024.2.1,59.73362392143045,2024-10-04 11h37.16.585010 +0530,
134,0,134,[-0.41],[-0.18875],[1],[0],[0],[2.2222527000121772],['target'],134,0,134,0,227.8474669000134,,,,,10,227.83513140003197,227.8474669000134,227.8474669000134,0.025934800039976835,230.05780100007541,[-0.41],[-0.18875],[1],[0],[0],[2.2222527000121772],['target'],003nutan,2024-10-04_11h37.02.739,visualsearchtask,2024.2.1,59.73362392143045,2024-10-04 11h37.16.585010 +0530,
135,0,135,[-0.17625],[0.02875],[1],[0],[0],[1.3523060998413712],['target'],135,0,135,0,230.0890790000558,,,,,5,230.0726108001545,230.0890790000558,230.0890790000558,0.014614899875596166,231.42539900005795,[-0.17625],[0.02875],[1],[0],[0],[1.3523060998413712],['target'],003nutan,2024-10-04_11h37.02.739,visualsearchtask,2024.2.1,59.73362392143045,2024-10-04 11h37.16.585010 +0530,
136,0,136,[0.465],[0.2],[1],[0],[0],[1.1904551999177784],[None],136,0,136,0,231.46335760015063,,,,,10,231.44931860012002,231.46335760015063,231.46335760015063,0.0237918000202626,232.64016019995324,[0.465],[0.2],[1],[0],[0],[1.1904551999177784],[None],003nutan,2024-10-04_11h37.02.739,visualsearchtask,2024.2.1,59.73362392143045,2024-10-04 11h37.16.585010 +0530,
137,0,137,[-0.44],[-0.26125],[1],[0],[0],[1.3893834999762475],['target'],137,0,137,0,232.67949600005522,,,,,10,232.6665080001112,232.67949600005522,232.67949600005522,0.02613890008069575,234.0563364000991,[-0.44],[-0.26125],[1],[0],[0],[1.3893834999762475],['target'],003nutan,2024-10-04_11h37.02.739,visualsearchtask,2024.2.1,59.73362392143045,2024-10-04 11h37.16.585010 +0530,
138,0,138,[0.32125],[0.15625],[1],[0],[0],[1.1372842998243868],['target'],138,0,138,0,234.08841940015554,,,,,5,234.06822660006583,234.08841940015554,234.08841940015554,0.011702799936756492,235.20594610017724,[0.32125],[0.15625],[1],[0],[0],[1.1372842998243868],['target'],003nutan,2024-10-04_11h37.02.739,visualsearchtask,2024.2.1,59.73362392143045,2024-10-04 11h37.16.585010 +0530,
139,0,139,[0.38375],[-0.42125],[1],[0],[0],[1.4871447999030352],['target'],139,0,139,0,235.23869929998182,,,,,5,235.2173131001182,235.23869929998182,235.23869929998182,0.011241600150242448,236.70485160010867,[0.38375],[-0.42125],[1],[0],[0],[1.4871447999030352],['target'],003nutan,2024-10-04_11h37.02.739,visualsearchtask,2024.2.1,59.73362392143045,2024-10-04 11h37.16.585010 +0530,
140,0,140,[0.1375],[-0.10375],[1],[0],[0],[2.0394389000721276],['target'],140,0,140,0,236.7437792001292,,,,,10,236.7308597001247,236.7437792001292,236.7437792001292,0.02582739992067218,238.77070650015958,[0.1375],[-0.10375],[1],[0],[0],[2.0394389000721276],['target'],003nutan,2024-10-04_11h37.02.739,visualsearchtask,2024.2.1,59.73362392143045,2024-10-04 11h37.16.585010 +0530,
141,0,141,[-0.2975],[-0.12],[1],[0],[0],[0.9536780000198632],[None],141,0,141,0,238.80195530015044,,,,,5,238.78326119994745,238.80195530015044,238.80195530015044,0.012311500031501055,239.73728889995255,[-0.2975],[-0.12],[1],[0],[0],[0.9536780000198632],[None],003nutan,2024-10-04_11h37.02.739,visualsearchtask,2024.2.1,59.73362392143045,2024-10-04 11h37.16.585010 +0530,
142,0,142,[0.47],[-0.24875],[1],[0],[0],[1.4551662998273969],[None],142,0,142,0,239.77670170017518,,,,,10,239.76406350010075,239.77670170017518,239.77670170017518,0.02663460001349449,241.21965160011314,[0.47],[-0.24875],[1],[0],[0],[1.4551662998273969],[None],003nutan,2024-10-04_11h37.02.739,visualsearchtask,2024.2.1,59.73362392143045,2024-10-04 11h37.16.585010 +0530,
143,0,143,[-0.08],[0.45625],[1],[0],[0],[4.189863700186834],['target'],143,0,143,0,241.25614590011537,,,,,10,241.24434770015068,241.25614590011537,241.25614590011537,0.024547399953007698,245.4346292000264,[-0.08],[0.45625],[1],[0],[0],[4.189863700186834],['target'],003nutan,2024-10-04_11h37.02.739,visualsearchtask,2024.2.1,59.73362392143045,2024-10-04 11h37.16.585010 +0530,
144,0,144,[-0.01125],[0.31375],[1],[0],[0],[1.2369198999367654],['target'],144,0,144,0,245.46673980006017,,,,,5,245.44722600001842,245.46673980006017,245.46673980006017,0.012423799838870764,246.68454329995438,[-0.01125],[0.31375],[1],[0],[0],[1.2369198999367654],['target'],003nutan,2024-10-04_11h37.02.739,visualsearchtask,2024.2.1,59.73362392143045,2024-10-04 11h37.16.585010 +0530,
145,0,145,[0.1475],[-0.38875],[1],[0],[0],[1.3248934000730515],[None],145,0,145,0,246.7201117000077,,,,,10,246.70838690013625,246.7201117000077,246.7201117000077,0.02365720015950501,248.0336484001018,[0.1475],[-0.38875],[1],[0],[0],[1.3248934000730515],[None],003nutan,2024-10-04_11h37.02.739,visualsearchtask,2024.2.1,59.73362392143045,2024-10-04 11h37.16.585010 +0530,
146,0,146,[-0.165],[0.19125],[1],[0],[0],[0.788019800093025],['target'],146,0,146,0,248.06526509998366,,,,,5,248.04529180005193,248.06526509998366,248.06526509998366,0.011502400040626526,248.8336891999934,[-0.165],[0.19125],[1],[0],[0],[0.788019800093025],['target'],003nutan,2024-10-04_11h37.02.739,visualsearchtask,2024.2.1,59.73362392143045,2024-10-04 11h37.16.585010 +0530,
147,0,147,[0.3425],[-0.115],[1],[0],[0],[1.0733970999717712],[None],147,0,147,0,248.87221780000255,,,,,10,248.85897880000994,248.87221780000255,248.87221780000255,0.02513110009022057,249.93275799998082,[0.3425],[-0.115],[1],[0],[0],[1.0733970999717712],[None],003nutan,2024-10-04_11h37.02.739,visualsearchtask,2024.2.1,59.73362392143045,2024-10-04 11h37.16.585010 +0530,
148,0,148,[-0.51],[0.32125],[1],[0],[0],[1.3076523998752236],[None],148,0,148,0,249.97023500013165,,,,,10,249.95763309998438,249.97023500013165,249.97023500013165,0.024713899940252304,251.26562279998325,[-0.51],[0.32125],[1],[0],[0],[1.3076523998752236],[None],003nutan,2024-10-04_11h37.02.739,visualsearchtask,2024.2.1,59.73362392143045,2024-10-04 11h37.16.585010 +0530,
149,0,149,[-0.04],[-0.3025],[1],[0],[0],[2.2405641998630017],['target'],149,0,149,0,251.30365670006722,,,,,10,251.29058449994773,251.30365670006722,251.30365670006722,0.024820199934765697,253.53147220006213,[-0.04],[-0.3025],[1],[0],[0],[2.2405641998630017],['target'],003nutan,2024-10-04_11h37.02.739,visualsearchtask,2024.2.1,59.73362392143045,2024-10-04 11h37.16.585010 +0530,
150,0,150,[-0.29375],[0.25625],[1],[0],[0],[1.408080300083384],['target'],150,0,150,0,253.56774369999766,,,,,10,253.55551140010357,253.56774369999766,253.56774369999766,0.023862999863922596,254.96398440003395,[-0.29375],[0.25625],[1],[0],[0],[1.408080300083384],['target'],003nutan,2024-10-04_11h37.02.739,visualsearchtask,2024.2.1,59.73362392143045,2024-10-04 11h37.16.585010 +0530,
151,0,151,[0.03625],[-0.2875],[1],[0],[0],[1.089380000019446],['target'],151,0,151,0,255.00363390007988,,,,,10,254.9905952999834,255.00363390007988,255.00363390007988,0.026416700100526214,256.0803468001541,[0.03625],[-0.2875],[1],[0],[0],[1.089380000019446],['target'],003nutan,2024-10-04_11h37.02.739,visualsearchtask,2024.2.1,59.73362392143045,2024-10-04 11h37.16.585010 +0530,
152,0,152,[-0.39375],[0.28125],[1],[0],[0],[0.8543268998619169],['target'],152,0,152,0,256.1110845999792,,,,,5,256.0920927999541,256.1110845999792,256.1110845999792,0.011600999860092998,256.94672450004146,[-0.39375],[0.28125],[1],[0],[0],[0.8543268998619169],['target'],003nutan,2024-10-04_11h37.02.739,visualsearchtask,2024.2.1,59.73362392143045,2024-10-04 11h37.16.585010 +0530,
153,0,153,[0.47125],[-0.19875],[1],[0],[0],[1.855867699952796],['target'],153,0,153,0,256.98521240008995,,,,,10,256.97242570016533,256.98521240008995,256.98521240008995,0.025535599794238806,258.82863759994507,[0.47125],[-0.19875],[1],[0],[0],[1.855867699952796],['target'],003nutan,2024-10-04_11h37.02.739,visualsearchtask,2024.2.1,59.73362392143045,2024-10-04 11h37.16.585010 +0530,
154,0,154,[-0.01],[0.36375],[1],[0],[0],[1.5416392998304218],['target'],154,0,154,0,258.8649167001713,,,,,10,258.8527927000541,258.8649167001713,258.8649167001713,0.023971099872142076,260.3948355000466,[-0.01],[0.36375],[1],[0],[0],[1.5416392998304218],['target'],003nutan,2024-10-04_11h37.02.739,visualsearchtask,2024.2.1,59.73362392143045,2024-10-04 11h37.16.585010 +0530,
155,0,155,[0.1125],[-0.21625],[1],[0],[0],[1.35906029981561],['target'],155,0,155,0,260.43188090017065,,,,,10,260.41973370010965,260.43188090017065,260.43188090017065,0.02470369986258447,261.7792093001772,[0.1125],[-0.21625],[1],[0],[0],[1.35906029981561],['target'],003nutan,2024-10-04_11h37.02.739,visualsearchtask,2024.2.1,59.73362392143045,2024-10-04 11h37.16.585010 +0530,
156,0,156,[0.3225],[-0.1025],[1],[0],[0],[1.0894959000870585],['target'],156,0,156,0,261.8165291999467,,,,,10,261.80384619999677,261.8165291999467,261.8165291999467,0.02449189987964928,262.8937282001134,[0.3225],[-0.1025],[1],[0],[0],[1.0894959000870585],['target'],003nutan,2024-10-04_11h37.02.739,visualsearchtask,2024.2.1,59.73362392143045,2024-10-04 11h37.16.585010 +0530,
157,0,157,[-0.38],[-0.07],[1],[0],[0],[1.1212692998815328],['target'],157,0,157,0,262.9254805999808,,,,,5,262.90593580016866,262.9254805999808,262.9254805999808,0.01204840000718832,264.0280152000487,[-0.38],[-0.07],[1],[0],[0],[1.1212692998815328],['target'],003nutan,2024-10-04_11h37.02.739,visualsearchtask,2024.2.1,59.73362392143045,2024-10-04 11h37.16.585010 +0530,
158,0,158,[-0.38],[-0.07],[1],[0],[0],[0.1762057999148965],[None],158,0,158,0,264.09321690001525,,,,,10,264.0663050999865,264.09321690001525,264.09321690001525,0.03810809995047748,264.2428209001664,[-0.38],[-0.07],[1],[0],[0],[0.1762057999148965],[None],003nutan,2024-10-04_11h37.02.739,visualsearchtask,2024.2.1,59.73362392143045,2024-10-04 11h37.16.585010 +0530,
159,0,159,[-0.4375],[0.04125],[1],[0],[0],[1.0709022001828998],[None],159,0,159,0,264.2770225000568,,,,,5,264.25540060014464,264.2770225000568,264.2770225000568,0.01244270009920001,265.3267223001458,[-0.4375],[0.04125],[1],[0],[0],[1.0709022001828998],[None],003nutan,2024-10-04_11h37.02.739,visualsearchtask,2024.2.1,59.73362392143045,2024-10-04 11h37.16.585010 +0530,
160,0,160,[0.3225],[0.14375],[1],[0],[0],[1.4027114999480546],['target'],160,0,160,0,265.3577135000378,,,,,5,265.33990010013804,265.3577135000378,265.3577135000378,0.013035900192335248,266.74294800008647,[0.3225],[0.14375],[1],[0],[0],[1.4027114999480546],['target'],003nutan,2024-10-04_11h37.02.739,visualsearchtask,2024.2.1,59.73362392143045,2024-10-04 11h37.16.585010 +0530,
161,0,161,[0.3025],[-0.37],[1],[0],[0],[1.3029741998761892],['target'],161,0,161,0,266.77369070006534,,,,,5,266.7548400000669,266.77369070006534,266.77369070006534,0.011769100092351437,268.0582196000032,[0.3025],[-0.37],[1],[0],[0],[1.3029741998761892],['target'],003nutan,2024-10-04_11h37.02.739,visualsearchtask,2024.2.1,59.73362392143045,2024-10-04 11h37.16.585010 +0530,
162,0,162,[0.08375],[-0.4475],[1],[0],[0],[1.3701918001752347],['target'],162,0,162,0,268.0898025999777,,,,,5,268.0702688000165,268.0898025999777,268.0898025999777,0.011936099966987967,269.4407850999851,[0.08375],[-0.4475],[1],[0],[0],[1.3701918001752347],['target'],003nutan,2024-10-04_11h37.02.739,visualsearchtask,2024.2.1,59.73362392143045,2024-10-04 11h37.16.585010 +0530,
163,0,163,[0.11],[-0.17375],[1],[0],[0],[1.0890381999779493],['target'],163,0,163,0,269.4799194999505,,,,,10,269.46761690010317,269.4799194999505,269.4799194999505,0.026692199986428022,270.5569850001484,[0.11],[-0.17375],[1],[0],[0],[1.0890381999779493],['target'],003nutan,2024-10-04_11h37.02.739,visualsearchtask,2024.2.1,59.73362392143045,2024-10-04 11h37.16.585010 +0530,
164,0,164,[-0.4525],[-0.05875],[1],[0],[0],[1.634590000147],[None],164,0,164,0,270.58830810012296,,,,,5,270.57204590016045,270.58830810012296,270.58830810012296,0.014859999995678663,272.20705750002526,[-0.4525],[-0.05875],[1],[0],[0],[1.634590000147],[None],003nutan,2024-10-04_11h37.02.739,visualsearchtask,2024.2.1,59.73362392143045,2024-10-04 11h37.16.585010 +0530,
165,0,165,[0.0325],[-0.17125],[1],[0],[0],[0.9409684001002461],[None],165,0,165,0,272.2430223999545,,,,,10,272.23121550004,272.2430223999545,272.2430223999545,0.024020300013944507,273.1725477001164,[0.0325],[-0.17125],[1],[0],[0],[0.9409684001002461],[None],003nutan,2024-10-04_11h37.02.739,visualsearchtask,2024.2.1,59.73362392143045,2024-10-04 11h37.16.585010 +0530,
166,0,166,[-0.4325],[-0.13625],[1],[0],[0],[1.138263599947095],['target'],166,0,166,0,273.21483870013617,,,,,10,273.2014749001246,273.21483870013617,273.21483870013617,0.028770300094038248,274.3401051000692,[-0.4325],[-0.13625],[1],[0],[0],[1.138263599947095],['target'],003nutan,2024-10-04_11h37.02.739,visualsearchtask,2024.2.1,59.73362392143045,2024-10-04 11h37.16.585010 +0530,
167,0,167,[0.06625],[-0.35375],[1],[0],[0],[1.152557399822399],[None],167,0,167,0,274.37022850010544,,,,,5,274.3524440000765,274.37022850010544,274.37022850010544,0.012133599957451224,275.5053874000441,[0.06625],[-0.35375],[1],[0],[0],[1.152557399822399],[None],003nutan,2024-10-04_11h37.02.739,visualsearchtask,2024.2.1,59.73362392143045,2024-10-04 11h37.16.585010 +0530,
168,0,168,[0.2275],[-0.1475],[1],[0],[0],[1.3741918001323938],['target'],168,0,168,0,275.5426179000642,,,,,10,275.5296790001448,275.5426179000642,275.5426179000642,0.024171700002625585,276.9041639000643,[0.2275],[-0.1475],[1],[0],[0],[1.3741918001323938],['target'],003nutan,2024-10-04_11h37.02.739,visualsearchtask,2024.2.1,59.73362392143045,2024-10-04 11h37.16.585010 +0530,
169,0,169,[-0.1975],[-0.38875],[1],[0],[0],[1.5062988998834044],['target'],169,0,169,0,276.9441768999677,,,,,10,276.9308355001267,276.9441768999677,276.9441768999677,0.026513800024986267,278.4374639999587,[-0.1975],[-0.38875],[1],[0],[0],[1.5062988998834044],['target'],003nutan,2024-10-04_11h37.02.739,visualsearchtask,2024.2.1,59.73362392143045,2024-10-04 11h37.16.585010 +0530,
170,0,170,[0.08875],[0.1575],[1],[0],[0],[2.22411229996942],['target'],170,0,170,0,278.473919400014,,,,,10,278.4617642001249,278.473919400014,278.473919400014,0.024168199859559536,280.6862266000826,[0.08875],[0.1575],[1],[0],[0],[2.22411229996942],['target'],003nutan,2024-10-04_11h37.02.739,visualsearchtask,2024.2.1,59.73362392143045,2024-10-04 11h37.16.585010 +0530,
171,0,171,[0.15625],[-0.26875],[1],[0],[0],[1.1698756001424044],['target'],171,0,171,0,280.71782910008915,,,,,5,280.69854760007,280.71782910008915,280.71782910008915,0.012174000032246113,281.86877500009723,[0.15625],[-0.26875],[1],[0],[0],[1.1698756001424044],['target'],003nutan,2024-10-04_11h37.02.739,visualsearchtask,2024.2.1,59.73362392143045,2024-10-04 11h37.16.585010 +0530,
172,0,172,[-0.08],[0.46],[1],[0],[0],[1.370648899814114],['target'],172,0,172,0,281.900737100048,,,,,5,281.88096150010824,281.900737100048,281.900737100048,0.012074800208210945,283.25200550002046,[-0.08],[0.46],[1],[0],[0],[1.370648899814114],['target'],003nutan,2024-10-04_11h37.02.739,visualsearchtask,2024.2.1,59.73362392143045,2024-10-04 11h37.16.585010 +0530,
173,0,173,[-0.2275],[-0.045],[1],[0],[0],[1.4873138000257313],['target'],173,0,173,0,283.28292230004445,,,,,5,283.2638624999672,283.28292230004445,283.28292230004445,0.01172560011036694,284.7515708000865,[-0.2275],[-0.045],[1],[0],[0],[1.4873138000257313],['target'],003nutan,2024-10-04_11h37.02.739,visualsearchtask,2024.2.1,59.73362392143045,2024-10-04 11h37.16.585010 +0530,
174,0,174,[0.36875],[-0.135],[1],[0],[0],[1.6227822999935597],[None],174,0,174,0,284.79160160012543,,,,,10,284.778090900043,284.79160160012543,284.79160160012543,0.02635330008342862,286.40123370010406,[0.36875],[-0.135],[1],[0],[0],[1.6227822999935597],[None],003nutan,2024-10-04_11h37.02.739,visualsearchtask,2024.2.1,59.73362392143045,2024-10-04 11h37.16.585010 +0530,
175,0,175,[0.0375],[0.48125],[1],[0],[0],[3.302553500048816],['target'],175,0,175,0,286.44175750017166,,,,,10,286.42922449996695,286.44175750017166,286.44175750017166,0.027856600005179644,289.7321642001625,[0.0375],[0.48125],[1],[0],[0],[3.302553500048816],['target'],003nutan,2024-10-04_11h37.02.739,visualsearchtask,2024.2.1,59.73362392143045,2024-10-04 11h37.16.585010 +0530,
176,0,176,[0.3825],[0.085],[1],[0],[0],[1.5095991000998765],[None],176,0,176,0,289.76767010008916,,,,,10,289.75559050007723,289.76767010008916,289.76767010008916,0.023281000088900328,291.2655676000286,[0.3825],[0.085],[1],[0],[0],[1.5095991000998765],[None],003nutan,2024-10-04_11h37.02.739,visualsearchtask,2024.2.1,59.73362392143045,2024-10-04 11h37.16.585010 +0530,
177,0,177,[0.13375],[0.3125],[1],[0],[0],[1.204120900016278],['target'],177,0,177,0,291.2962704000529,,,,,5,291.2772190000396,291.2962704000529,291.2962704000529,0.011498500127345324,292.48170790006407,[0.13375],[0.3125],[1],[0],[0],[1.204120900016278],['target'],003nutan,2024-10-04_11h37.02.739,visualsearchtask,2024.2.1,59.73362392143045,2024-10-04 11h37.16.585010 +0530,
178,0,178,[-0.49875],[0.14375],[1],[0],[0],[1.4745085998438299],[None],178,0,178,0,292.51797819999047,,,,,10,292.5056020000484,292.51797819999047,292.51797819999047,0.02373509993776679,293.9804688000586,[-0.49875],[0.14375],[1],[0],[0],[1.4745085998438299],[None],003nutan,2024-10-04_11h37.02.739,visualsearchtask,2024.2.1,59.73362392143045,2024-10-04 11h37.16.585010 +0530,
179,0,179,[-0.25875],[-0.14125],[1],[0],[0],[1.4572192998602986],['target'],179,0,179,0,294.0179284999613,,,,,10,294.00621940009296,294.0179284999613,294.0179284999613,0.025618799962103367,295.4638300000224,[-0.25875],[-0.14125],[1],[0],[0],[1.4572192998602986],['target'],003nutan,2024-10-04_11h37.02.739,visualsearchtask,2024.2.1,59.73362392143045,2024-10-04 11h37.16.585010 +0530,
180,0,180,[-0.12875],[0.04625],[1],[0],[0],[2.140100199962035],[None],180,0,180,0,295.5843267000746,,,,,10,295.5716933000367,295.5843267000746,295.5843267000746,0.10769569990225136,297.71220099995844,[-0.12875],[0.04625],[1],[0],[0],[2.140100199962035],[None],003nutan,2024-10-04_11h37.02.739,visualsearchtask,2024.2.1,59.73362392143045,2024-10-04 11h37.16.585010 +0530,
181,0,181,[0.2525],[0.3875],[1],[0],[0],[1.1036751999054104],[None],181,0,181,0,297.74345210008323,,,,,5,297.72448169998825,297.74345210008323,297.74345210008323,0.012130399933084846,298.82850340008736,[0.2525],[0.3875],[1],[0],[0],[1.1036751999054104],[None],003nutan,2024-10-04_11h37.02.739,visualsearchtask,2024.2.1,59.73362392143045,2024-10-04 11h37.16.585010 +0530,
182,0,182,[0.1225],[0.4875],[1],[0],[0],[2.8901303000748158],['target'],182,0,182,0,298.86742030014284,,,,,10,298.85347030009143,298.86742030014284,298.86742030014284,0.02481499989517033,301.7439727000892,[0.1225],[0.4875],[1],[0],[0],[2.8901303000748158],['target'],003nutan,2024-10-04_11h37.02.739,visualsearchtask,2024.2.1,59.73362392143045,2024-10-04 11h37.16.585010 +0530,
183,0,183,[-0.305],[0.12],[1],[0],[0],[1.520785499829799],[None],183,0,183,0,301.7752189000603,,,,,5,301.75550950015895,301.7752189000603,301.7752189000603,0.01138510019518435,303.2766434000805,[-0.305],[0.12],[1],[0],[0],[1.520785499829799],[None],003nutan,2024-10-04_11h37.02.739,visualsearchtask,2024.2.1,59.73362392143045,2024-10-04 11h37.16.585010 +0530,
184,0,184,[0.44],[-0.40125],[1],[0],[0],[1.1038097999989986],['target'],184,0,184,0,303.3078026000876,,,,,5,303.28836999996565,303.3078026000876,303.3078026000876,0.01160249998793006,304.39260910009034,[0.44],[-0.40125],[1],[0],[0],[1.1038097999989986],['target'],003nutan,2024-10-04_11h37.02.739,visualsearchtask,2024.2.1,59.73362392143045,2024-10-04 11h37.16.585010 +0530,
185,0,185,[-0.4025],[-0.255],[1],[0],[0],[1.0144491998944432],['target'],185,0,185,0,304.423780699959,,,,,5,304.4105607001111,304.423780699959,304.423780699959,0.01780709996819496,305.4253412000835,[-0.4025],[-0.255],[1],[0],[0],[1.0144491998944432],['target'],003nutan,2024-10-04_11h37.02.739,visualsearchtask,2024.2.1,59.73362392143045,2024-10-04 11h37.16.585010 +0530,
186,0,186,[0.50625],[-0.06625],[1],[0],[0],[0.9713580999523401],['target'],186,0,186,0,305.45697759999894,,,,,5,305.4369510000106,305.45697759999894,305.45697759999894,0.011481499997898936,306.40876909997314,[0.50625],[-0.06625],[1],[0],[0],[0.9713580999523401],['target'],003nutan,2024-10-04_11h37.02.739,visualsearchtask,2024.2.1,59.73362392143045,2024-10-04 11h37.16.585010 +0530,
187,0,187,[0.465],[-0.14875],[1],[0],[0],[0.9837888001929969],[None],187,0,187,0,306.44066309998743,,,,,5,306.4236463000998,306.44066309998743,306.44066309998743,0.014712900156155229,307.40786559996195,[0.465],[-0.14875],[1],[0],[0],[0.9837888001929969],[None],003nutan,2024-10-04_11h37.02.739,visualsearchtask,2024.2.1,59.73362392143045,2024-10-04 11h37.16.585010 +0530,
188,0,188,[-0.47625],[0.29875],[1],[0],[0],[1.4539430001750588],[None],188,0,188,0,307.4396275000181,,,,,5,307.419674300123,307.4396275000181,307.4396275000181,0.011651600012555718,308.8739759000018,[-0.47625],[0.29875],[1],[0],[0],[1.4539430001750588],[None],003nutan,2024-10-04_11h37.02.739,visualsearchtask,2024.2.1,59.73362392143045,2024-10-04 11h37.16.585010 +0530,
189,0,189,[0.46875],[0.4725],[1],[0],[0],[2.4706535001751035],['target'],189,0,189,0,308.9054539001081,,,,,5,308.8855139000807,308.9054539001081,308.9054539001081,0.011377499904483557,311.35654340009205,[0.46875],[0.4725],[1],[0],[0],[2.4706535001751035],['target'],003nutan,2024-10-04_11h37.02.739,visualsearchtask,2024.2.1,59.73362392143045,2024-10-04 11h37.16.585010 +0530,
190,0,190,[-0.205],[-0.04875],[1],[0],[0],[1.4049305999651551],['target'],190,0,190,0,311.39594230009243,,,,,10,311.38413300015964,311.39594230009243,311.39594230009243,0.027460400015115738,312.78948769997805,[-0.205],[-0.04875],[1],[0],[0],[1.4049305999651551],['target'],003nutan,2024-10-04_11h37.02.739,visualsearchtask,2024.2.1,59.73362392143045,2024-10-04 11h37.16.585010 +0530,
191,0,191,[0.20125],[-0.3925],[1],[0],[0],[1.051240700064227],['target'],191,0,191,0,312.8199632000178,,,,,5,312.8036521000322,312.8199632000178,312.8199632000178,0.014024800155311823,313.85527279996313,[0.20125],[-0.3925],[1],[0],[0],[1.051240700064227],['target'],003nutan,2024-10-04_11h37.02.739,visualsearchtask,2024.2.1,59.73362392143045,2024-10-04 11h37.16.585010 +0530,
192,0,192,[0.22],[0.005],[1],[0],[0],[1.0504882000386715],['target'],192,0,192,0,313.8861157000065,,,,,5,313.8702361001633,313.8861157000065,313.8861157000065,0.014804600039497018,314.9210520000197,[0.22],[0.005],[1],[0],[0],[1.0504882000386715],['target'],003nutan,2024-10-04_11h37.02.739,visualsearchtask,2024.2.1,59.73362392143045,2024-10-04 11h37.16.585010 +0530,
193,0,193,[0.22125],[0.395],[1],[0],[0],[1.001335799926892],['target'],193,0,193,0,314.95227350015193,,,,,5,314.935901600169,314.95227350015193,314.95227350015193,0.01466479990631342,315.93758470006287,[0.22125],[0.395],[1],[0],[0],[1.001335799926892],['target'],003nutan,2024-10-04_11h37.02.739,visualsearchtask,2024.2.1,59.73362392143045,2024-10-04 11h37.16.585010 +0530,
194,0,194,[-0.23625],[0.01375],[1],[0],[0],[0.8534528999589384],['target'],194,0,194,0,315.9687231001444,,,,,5,315.9498307001777,315.9687231001444,315.9687231001444,0.012119700200855732,316.8036632000003,[-0.23625],[0.01375],[1],[0],[0],[0.8534528999589384],['target'],003nutan,2024-10-04_11h37.02.739,visualsearchtask,2024.2.1,59.73362392143045,2024-10-04 11h37.16.585010 +0530,
195,0,195,[-0.3975],[0.0325],[1],[0],[0],[0.8377443000208586],['target'],195,0,195,0,316.83488730015233,,,,,5,316.8152691000141,316.83488730015233,316.83488730015233,0.011473400052636862,317.6533759001177,[-0.3975],[0.0325],[1],[0],[0],[0.8377443000208586],['target'],003nutan,2024-10-04_11h37.02.739,visualsearchtask,2024.2.1,59.73362392143045,2024-10-04 11h37.16.585010 +0530,
196,0,196,[0.4575],[0.1025],[1],[0],[0],[0.9536425999831408],['target'],196,0,196,0,317.6849392000586,,,,,5,317.6657710999716,317.6849392000586,317.6849392000586,0.012262500124052167,318.61973919998854,[0.4575],[0.1025],[1],[0],[0],[0.9536425999831408],['target'],003nutan,2024-10-04_11h37.02.739,visualsearchtask,2024.2.1,59.73362392143045,2024-10-04 11h37.16.585010 +0530,
197,0,197,[0.135],[-0.0925],[1],[0],[0],[1.7040383000858128],[None],197,0,197,0,318.65085670002736,,,,,5,318.63177390000783,318.65085670002736,318.65085670002736,0.011918700067326427,320.33614360005595,[0.135],[-0.0925],[1],[0],[0],[1.7040383000858128],[None],003nutan,2024-10-04_11h37.02.739,visualsearchtask,2024.2.1,59.73362392143045,2024-10-04 11h37.16.585010 +0530,
198,0,198,[-0.3775],[-0.44125],[1],[0],[0],[1.599917900050059],['target'],198,0,198,0,320.36672549997456,,,,,5,320.3514922000468,320.36672549997456,320.36672549997456,0.015188500052317977,321.951804399956,[-0.3775],[-0.44125],[1],[0],[0],[1.599917900050059],['target'],003nutan,2024-10-04_11h37.02.739,visualsearchtask,2024.2.1,59.73362392143045,2024-10-04 11h37.16.585010 +0530,
199,0,199,[0.4275],[-0.2825],[1],[0],[0],[1.6404053000733256],[None],199,0,199,0,321.99062700010836,,,,,10,321.97749660001136,321.99062700010836,321.99062700010836,0.025526600191369653,323.6182734000031,[0.4275],[-0.2825],[1],[0],[0],[1.6404053000733256],[None],003nutan,2024-10-04_11h37.02.739,visualsearchtask,2024.2.1,59.73362392143045,2024-10-04 11h37.16.585010 +0530,
