thisN,thisTrialN,thisRepN,mouse.x,mouse.y,mouse.leftButton,mouse.midButton,mouse.rightButton,mouse.time,mouse.clicked_name,trials.thisRepN,trials.thisTrialN,trials.thisN,trials.thisIndex,thisRow.t,notes,Instructions.started,text.started,Instructions.stopped,num_distr,trial.started,fixation.started,target.started,mouse.started,trial.stopped,trials.mouse.x,trials.mouse.y,trials.mouse.leftButton,trials.mouse.midButton,trials.mouse.rightButton,trials.mouse.time,trials.mouse.clicked_name,participant,date,expName,psychopyVersion,frameRate,expStart,
,,,,,,,,,,,,,,,,0.0270306000020355,0.04364320000240696,7.006233500000235,,,,,,,,,,,,,,004,2024-10-10_12h19.04.873,visualsearchtask,2024.2.1,61.277964199668325,2024-10-10 12h19.33.421965 +0530,
0,0,0,[0.02],[0.395],[1],[0],[0],[2.8866619000000355],['target'],0,0,0,0,7.053809100001672,,,,,10,7.038113400001748,7.053809100001672,7.053809100001672,0.037805300002219155,9.925205900002766,[0.02],[0.395],[1],[0],[0],[2.8866619000000355],['target'],004,2024-10-10_12h19.04.873,visualsearchtask,2024.2.1,61.277964199668325,2024-10-10 12h19.33.421965 +0530,
1,0,1,[0.41625],[0.25625],[1],[0],[0],[2.2653396999994584],['target'],1,0,1,0,9.955305000003136,,,,,5,9.940457700002298,9.955305000003136,9.955305000003136,0.015046800002892269,12.206171700003324,[0.41625],[0.25625],[1],[0],[0],[2.2653396999994584],['target'],004,2024-10-10_12h19.04.873,visualsearchtask,2024.2.1,61.277964199668325,2024-10-10 12h19.33.421965 +0530,
2,0,2,[0.0075],[0.2075],[1],[0],[0],[1.733163600001717],['target'],2,0,2,0,12.238049800002045,,,,,5,12.22147230000337,12.238049800002045,12.238049800002045,0.015142000000196276,13.954984500000137,[0.0075],[0.2075],[1],[0],[0],[1.733163600001717],['target'],004,2024-10-10_12h19.04.873,visualsearchtask,2024.2.1,61.277964199668325,2024-10-10 12h19.33.421965 +0530,
3,0,3,[-0.1375],[-0.4625],[1],[0],[0],[2.956775499998912],['target'],3,0,3,0,13.993216500002745,,,,,10,13.98025680000137,13.993216500002745,13.993216500002745,0.025144100000034086,16.9373685999999,[-0.1375],[-0.4625],[1],[0],[0],[2.956775499998912],['target'],004,2024-10-10_12h19.04.873,visualsearchtask,2024.2.1,61.277964199668325,2024-10-10 12h19.33.421965 +0530,
4,0,4,[0.00625],[0.21125],[1],[0],[0],[2.3554366000025766],['target'],4,0,4,0,16.97742990000188,,,,,10,16.963868400001957,16.97742990000188,16.97742990000188,0.0262975000005099,19.319655000002967,[0.00625],[0.21125],[1],[0],[0],[2.3554366000025766],['target'],004,2024-10-10_12h19.04.873,visualsearchtask,2024.2.1,61.277964199668325,2024-10-10 12h19.33.421965 +0530,
5,0,5,[0.40125],[0.22],[1],[0],[0],[2.250839799999085],['target'],5,0,5,0,19.350711400002183,,,,,5,19.33391870000196,19.350711400002183,19.350711400002183,0.014113799999904586,21.585140300001513,[0.40125],[0.22],[1],[0],[0],[2.250839799999085],['target'],004,2024-10-10_12h19.04.873,visualsearchtask,2024.2.1,61.277964199668325,2024-10-10 12h19.33.421965 +0530,
6,0,6,[-0.03375],[0.08125],[1],[0],[0],[1.968740500000422],['target'],6,0,6,0,21.61715220000042,,,,,5,21.59992560000319,21.61715220000042,21.61715220000042,0.014627399999881163,23.569050400001288,[-0.03375],[0.08125],[1],[0],[0],[1.968740500000422],['target'],004,2024-10-10_12h19.04.873,visualsearchtask,2024.2.1,61.277964199668325,2024-10-10 12h19.33.421965 +0530,
7,0,7,[-0.07625],[-0.0325],[1],[0],[0],[2.2200701000001573],['target'],7,0,7,0,23.609751400003006,,,,,10,23.596865700001217,23.609751400003006,23.609751400003006,0.027653500001179054,25.817370100001426,[-0.07625],[-0.0325],[1],[0],[0],[2.2200701000001573],['target'],004,2024-10-10_12h19.04.873,visualsearchtask,2024.2.1,61.277964199668325,2024-10-10 12h19.33.421965 +0530,
8,0,8,[-0.36],[-0.14625],[1],[0],[0],[5.304946299998846],['target'],8,0,8,0,25.855738199999905,,,,,10,25.842857000003278,25.855738199999905,25.855738199999905,0.025297200001659803,31.148172500001237,[-0.36],[-0.14625],[1],[0],[0],[5.304946299998846],['target'],004,2024-10-10_12h19.04.873,visualsearchtask,2024.2.1,61.277964199668325,2024-10-10 12h19.33.421965 +0530,
9,0,9,[-0.4075],[0.18625],[1],[0],[0],[2.2383692000003066],['target'],9,0,9,0,31.18839310000112,,,,,10,31.17540690000169,31.18839310000112,31.18839310000112,0.027036399998905836,33.414168000002974,[-0.4075],[0.18625],[1],[0],[0],[2.2383692000003066],['target'],004,2024-10-10_12h19.04.873,visualsearchtask,2024.2.1,61.277964199668325,2024-10-10 12h19.33.421965 +0530,
10,0,10,[-0.25625],[0.3425],[1],[0],[0],[2.785713900000701],['target'],10,0,10,0,33.44585050000023,,,,,5,33.42676030000075,33.44585050000023,33.44585050000023,0.012394499997753883,36.21287480000319,[-0.25625],[0.3425],[1],[0],[0],[2.785713900000701],['target'],004,2024-10-10_12h19.04.873,visualsearchtask,2024.2.1,61.277964199668325,2024-10-10 12h19.33.421965 +0530,
11,0,11,[0.34],[0.48875],[1],[0],[0],[3.18947350000235],['target'],11,0,11,0,36.25151850000111,,,,,10,36.23810290000256,36.25151850000111,36.25151850000111,0.025114700001722667,39.427899199999956,[0.34],[0.48875],[1],[0],[0],[3.18947350000235],['target'],004,2024-10-10_12h19.04.873,visualsearchtask,2024.2.1,61.277964199668325,2024-10-10 12h19.33.421965 +0530,
12,0,12,[-0.40375],[-0.45125],[1],[0],[0],[4.733158099999855],['target'],12,0,12,0,39.45869610000227,,,,,5,39.44305010000244,39.45869610000227,39.45869610000227,0.01494299999831128,44.17660900000192,[-0.40375],[-0.45125],[1],[0],[0],[4.733158099999855],['target'],004,2024-10-10_12h19.04.873,visualsearchtask,2024.2.1,61.277964199668325,2024-10-10 12h19.33.421965 +0530,
13,0,13,[-0.4925],[0.39875],[1],[0],[0],[3.3991091000025335],['target'],13,0,13,0,44.20767390000037,,,,,5,44.1912811000002,44.20767390000037,44.20767390000037,0.01451219999944442,47.59078900000168,[-0.4925],[0.39875],[1],[0],[0],[3.3991091000025335],['target'],004,2024-10-10_12h19.04.873,visualsearchtask,2024.2.1,61.277964199668325,2024-10-10 12h19.33.421965 +0530,
14,0,14,[-0.49625],[-0.02375],[1],[0],[0],[2.003641300001618],['target'],14,0,14,0,47.622402100001636,,,,,5,47.60334150000199,47.622402100001636,47.622402100001636,0.012388900002406444,49.607384200000524,[-0.49625],[-0.02375],[1],[0],[0],[2.003641300001618],['target'],004,2024-10-10_12h19.04.873,visualsearchtask,2024.2.1,61.277964199668325,2024-10-10 12h19.33.421965 +0530,
15,0,15,[-0.40625],[-0.45875],[1],[0],[0],[3.837024799999199],['target'],15,0,15,0,49.64829910000117,,,,,10,49.63412690000041,49.64829910000117,49.64829910000117,0.026577199998428114,53.471599700002116,[-0.40625],[-0.45875],[1],[0],[0],[3.837024799999199],['target'],004,2024-10-10_12h19.04.873,visualsearchtask,2024.2.1,61.277964199668325,2024-10-10 12h19.33.421965 +0530,
16,0,16,[0.4175],[-0.0675],[1],[0],[0],[2.3745294000000285],['target'],16,0,16,0,53.50867830000061,,,,,10,53.49610500000199,53.50867830000061,53.50867830000061,0.024282999998831656,55.870938600000954,[0.4175],[-0.0675],[1],[0],[0],[2.3745294000000285],['target'],004,2024-10-10_12h19.04.873,visualsearchtask,2024.2.1,61.277964199668325,2024-10-10 12h19.33.421965 +0530,
17,0,17,[-0.2],[0.0125],[1],[0],[0],[2.506924400000571],['target'],17,0,17,0,55.90974660000211,,,,,10,55.89541180000015,55.90974660000211,55.90974660000211,0.02432779999799095,58.4028115000001,[-0.2],[0.0125],[1],[0],[0],[2.506924400000571],['target'],004,2024-10-10_12h19.04.873,visualsearchtask,2024.2.1,61.277964199668325,2024-10-10 12h19.33.421965 +0530,
18,0,18,[-0.05375],[-0.42],[1],[0],[0],[3.4511769999990065],['target'],18,0,18,0,58.43431920000148,,,,,5,58.41681690000041,58.43431920000148,58.43431920000148,0.013779799999610987,61.86833269999988,[-0.05375],[-0.42],[1],[0],[0],[3.4511769999990065],['target'],004,2024-10-10_12h19.04.873,visualsearchtask,2024.2.1,61.277964199668325,2024-10-10 12h19.33.421965 +0530,
19,0,19,[0.45875],[0.475],[1],[0],[0],[4.237684300002002],['target'],19,0,19,0,61.90822670000125,,,,,10,61.89486279999983,61.90822670000125,61.90822670000125,0.026361000000179047,66.13292010000077,[0.45875],[0.475],[1],[0],[0],[4.237684300002002],['target'],004,2024-10-10_12h19.04.873,visualsearchtask,2024.2.1,61.277964199668325,2024-10-10 12h19.33.421965 +0530,
20,0,20,[-0.29875],[0.055],[1],[0],[0],[3.316924200000358],['target'],20,0,20,0,66.1645994999999,,,,,5,66.147782,66.1645994999999,66.1645994999999,0.014650299999630079,69.4651569000016,[-0.29875],[0.055],[1],[0],[0],[3.316924200000358],['target'],004,2024-10-10_12h19.04.873,visualsearchtask,2024.2.1,61.277964199668325,2024-10-10 12h19.33.421965 +0530,
21,0,21,[-0.17875],[0.32875],[1],[0],[0],[2.057274300001154],['target'],21,0,21,0,69.50129170000218,,,,,10,69.48932020000211,69.50129170000218,69.50129170000218,0.024029500000324333,71.5469316000017,[-0.17875],[0.32875],[1],[0],[0],[2.057274300001154],['target'],004,2024-10-10_12h19.04.873,visualsearchtask,2024.2.1,61.277964199668325,2024-10-10 12h19.33.421965 +0530,
22,0,22,[0.27875],[0.29875],[1],[0],[0],[2.801223400001618],['target'],22,0,22,0,71.57735550000143,,,,,5,71.5601370000004,71.57735550000143,71.57735550000143,0.013050100002146792,74.36179540000012,[0.27875],[0.29875],[1],[0],[0],[2.801223400001618],['target'],004,2024-10-10_12h19.04.873,visualsearchtask,2024.2.1,61.277964199668325,2024-10-10 12h19.33.421965 +0530,
23,0,23,[0.035],[0.1525],[1],[0],[0],[2.024456700000883],['target'],23,0,23,0,74.39860000000044,,,,,10,74.38627720000295,74.39860000000044,74.39860000000044,0.024290800000017043,76.41112820000126,[0.035],[0.1525],[1],[0],[0],[2.024456700000883],['target'],004,2024-10-10_12h19.04.873,visualsearchtask,2024.2.1,61.277964199668325,2024-10-10 12h19.33.421965 +0530,
24,0,24,[0.29125],[0.38125],[1],[0],[0],[2.837778700002673],['target'],24,0,24,0,76.45229110000218,,,,,10,76.43861650000326,76.45229110000218,76.45229110000218,0.027293600000120932,79.27672630000234,[0.29125],[0.38125],[1],[0],[0],[2.837778700002673],['target'],004,2024-10-10_12h19.04.873,visualsearchtask,2024.2.1,61.277964199668325,2024-10-10 12h19.33.421965 +0530,
25,0,25,[0.36125],[-0.04375],[1],[0],[0],[3.402298499997414],['target'],25,0,25,0,79.30771070000264,,,,,5,79.28918090000298,79.30771070000264,79.30771070000264,0.012301400001888396,82.6918859000034,[0.36125],[-0.04375],[1],[0],[0],[3.402298499997414],['target'],004,2024-10-10_12h19.04.873,visualsearchtask,2024.2.1,61.277964199668325,2024-10-10 12h19.33.421965 +0530,
26,0,26,[0.11375],[0.22],[1],[0],[0],[3.283733000000211],['target'],26,0,26,0,82.72333870000148,,,,,5,82.70696110000063,82.72333870000148,82.72333870000148,0.01491619999796967,85.99106200000097,[0.11375],[0.22],[1],[0],[0],[3.283733000000211],['target'],004,2024-10-10_12h19.04.873,visualsearchtask,2024.2.1,61.277964199668325,2024-10-10 12h19.33.421965 +0530,
27,0,27,[0.27375],[0.09125],[1],[0],[0],[1.7740146999967692],['target'],27,0,27,0,86.0281216000003,,,,,10,86.0150171000023,86.0281216000003,86.0281216000003,0.0238074000008055,87.7894492000014,[0.27375],[0.09125],[1],[0],[0],[1.7740146999967692],['target'],004,2024-10-10_12h19.04.873,visualsearchtask,2024.2.1,61.277964199668325,2024-10-10 12h19.33.421965 +0530,
28,0,28,[-0.33],[0.39875],[1],[0],[0],[2.536216100001184],['target'],28,0,28,0,87.8209996000005,,,,,5,87.80214479999995,87.8209996000005,87.8209996000005,0.012520599997515092,90.3387821000033,[-0.33],[0.39875],[1],[0],[0],[2.536216100001184],['target'],004,2024-10-10_12h19.04.873,visualsearchtask,2024.2.1,61.277964199668325,2024-10-10 12h19.33.421965 +0530,
29,0,29,[0.28875],[0.34125],[1],[0],[0],[2.6745579000016733],['target'],29,0,29,0,90.37509649999993,,,,,10,90.3627910000032,90.37509649999993,90.37509649999993,0.023893100002169376,93.03776310000103,[0.28875],[0.34125],[1],[0],[0],[2.6745579000016733],['target'],004,2024-10-10_12h19.04.873,visualsearchtask,2024.2.1,61.277964199668325,2024-10-10 12h19.33.421965 +0530,
30,0,30,[-0.50125],[-0.01875],[1],[0],[0],[2.4579766000024392],['target'],30,0,30,0,93.07412070000282,,,,,10,93.06190630000128,93.07412070000282,93.07412070000282,0.02398929999981192,95.52030180000293,[-0.50125],[-0.01875],[1],[0],[0],[2.4579766000024392],['target'],004,2024-10-10_12h19.04.873,visualsearchtask,2024.2.1,61.277964199668325,2024-10-10 12h19.33.421965 +0530,
31,0,31,[-0.2375],[0.37625],[1],[0],[0],[2.3161837000006926],['target'],31,0,31,0,95.55098080000243,,,,,5,95.53518360000089,95.55098080000243,95.55098080000243,0.014686700000311248,97.85173209999994,[-0.2375],[0.37625],[1],[0],[0],[2.3161837000006926],['target'],004,2024-10-10_12h19.04.873,visualsearchtask,2024.2.1,61.277964199668325,2024-10-10 12h19.33.421965 +0530,
32,0,32,[-0.15],[0.11875],[1],[0],[0],[1.6343090000009397],['target'],32,0,32,0,97.8834248000021,,,,,5,97.8662019000003,97.8834248000021,97.8834248000021,0.01431139999840525,99.50089560000197,[-0.15],[0.11875],[1],[0],[0],[1.6343090000009397],['target'],004,2024-10-10_12h19.04.873,visualsearchtask,2024.2.1,61.277964199668325,2024-10-10 12h19.33.421965 +0530,
33,0,33,[0.25875],[-0.03875],[1],[0],[0],[2.1867834000004223],['target'],33,0,33,0,99.53226730000097,,,,,5,99.51335060000201,99.53226730000097,99.53226730000097,0.012323400002060225,101.70055540000249,[0.25875],[-0.03875],[1],[0],[0],[2.1867834000004223],['target'],004,2024-10-10_12h19.04.873,visualsearchtask,2024.2.1,61.277964199668325,2024-10-10 12h19.33.421965 +0530,
34,0,34,[0.47625],[-0.33125],[1],[0],[0],[3.671672899999976],['target'],34,0,34,0,101.74072040000101,,,,,10,101.7271182000004,101.74072040000101,101.74072040000101,0.026397099998575868,105.3991586000011,[0.47625],[-0.33125],[1],[0],[0],[3.671672899999976],['target'],004,2024-10-10_12h19.04.873,visualsearchtask,2024.2.1,61.277964199668325,2024-10-10 12h19.33.421965 +0530,
35,0,35,[-0.09],[-0.12625],[1],[0],[0],[2.5025563999988663],['target'],35,0,35,0,105.42995480000172,,,,,5,105.41181420000066,105.42995480000172,105.42995480000172,0.01251580000098329,107.91471730000194,[-0.09],[-0.12625],[1],[0],[0],[2.5025563999988663],['target'],004,2024-10-10_12h19.04.873,visualsearchtask,2024.2.1,61.277964199668325,2024-10-10 12h19.33.421965 +0530,
36,0,36,[0.2525],[0.03625],[1],[0],[0],[3.5678489999991143],['target'],36,0,36,0,107.94560240000283,,,,,5,107.92768240000078,107.94560240000283,107.94560240000283,0.012840699997468619,111.49590549999994,[0.2525],[0.03625],[1],[0],[0],[3.5678489999991143],['target'],004,2024-10-10_12h19.04.873,visualsearchtask,2024.2.1,61.277964199668325,2024-10-10 12h19.33.421965 +0530,
37,0,37,[-0.105],[0.11375],[1],[0],[0],[1.6675924999981362],['target'],37,0,37,0,111.52708090000306,,,,,5,111.51063140000042,111.52708090000306,111.52708090000306,0.014566900001227623,113.17859280000266,[-0.105],[0.11375],[1],[0],[0],[1.6675924999981362],['target'],004,2024-10-10_12h19.04.873,visualsearchtask,2024.2.1,61.277964199668325,2024-10-10 12h19.33.421965 +0530,
38,0,38,[-0.3575],[-0.32875],[1],[0],[0],[3.4882809999980964],['target'],38,0,38,0,113.21773830000166,,,,,10,113.20508710000286,113.21773830000166,113.21773830000166,0.026327499999752035,116.69380870000168,[-0.3575],[-0.32875],[1],[0],[0],[3.4882809999980964],['target'],004,2024-10-10_12h19.04.873,visualsearchtask,2024.2.1,61.277964199668325,2024-10-10 12h19.33.421965 +0530,
39,0,39,[-0.30625],[-0.335],[1],[0],[0],[2.1571744000029867],['target'],39,0,39,0,116.73083180000322,,,,,10,116.71836750000148,116.73083180000322,116.73083180000322,0.024403499999607448,118.87595200000214,[-0.30625],[-0.335],[1],[0],[0],[2.1571744000029867],['target'],004,2024-10-10_12h19.04.873,visualsearchtask,2024.2.1,61.277964199668325,2024-10-10 12h19.33.421965 +0530,
40,0,40,[0.48375],[0.44625],[1],[0],[0],[3.238969800000632],['target'],40,0,40,0,118.91348950000247,,,,,10,118.90184870000303,118.91348950000247,118.91348950000247,0.025712400001793867,122.14124740000261,[0.48375],[0.44625],[1],[0],[0],[3.238969800000632],['target'],004,2024-10-10_12h19.04.873,visualsearchtask,2024.2.1,61.277964199668325,2024-10-10 12h19.33.421965 +0530,
41,0,41,[0.45375],[-0.185],[1],[0],[0],[2.688624299997173],['target'],41,0,41,0,122.1829902999998,,,,,10,122.16799620000165,122.1829902999998,122.1829902999998,0.026564600000710925,124.85695580000174,[0.45375],[-0.185],[1],[0],[0],[2.688624299997173],['target'],004,2024-10-10_12h19.04.873,visualsearchtask,2024.2.1,61.277964199668325,2024-10-10 12h19.33.421965 +0530,
42,0,42,[0.03],[0.0975],[1],[0],[0],[2.405051199999434],['target'],42,0,42,0,124.89705480000339,,,,,10,124.88389240000106,124.89705480000339,124.89705480000339,0.02676390000124229,127.28932790000181,[0.03],[0.0975],[1],[0],[0],[2.405051199999434],['target'],004,2024-10-10_12h19.04.873,visualsearchtask,2024.2.1,61.277964199668325,2024-10-10 12h19.33.421965 +0530,
43,0,43,[0.32625],[0.48125],[1],[0],[0],[14.052757200002816],['target'],43,0,43,0,127.3270721000008,,,,,10,127.31329210000331,127.3270721000008,127.3270721000008,0.023811200000636745,141.366375900001,[0.32625],[0.48125],[1],[0],[0],[14.052757200002816],['target'],004,2024-10-10_12h19.04.873,visualsearchtask,2024.2.1,61.277964199668325,2024-10-10 12h19.33.421965 +0530,
44,0,44,[0.27875],[-0.23],[1],[0],[0],[4.3596994999970775],['target'],44,0,44,0,141.40494670000044,,,,,10,141.39187470000252,141.40494670000044,141.40494670000044,0.025353000000905013,145.75198300000193,[0.27875],[-0.23],[1],[0],[0],[4.3596994999970775],['target'],004,2024-10-10_12h19.04.873,visualsearchtask,2024.2.1,61.277964199668325,2024-10-10 12h19.33.421965 +0530,
45,0,45,[-0.27625],[-0.08375],[1],[0],[0],[2.6674010999995517],['target'],45,0,45,0,145.7960254999998,,,,,10,145.77917900000102,145.7960254999998,145.7960254999998,0.02698679999957676,148.44694210000307,[-0.27625],[-0.08375],[1],[0],[0],[2.6674010999995517],['target'],004,2024-10-10_12h19.04.873,visualsearchtask,2024.2.1,61.277964199668325,2024-10-10 12h19.33.421965 +0530,
46,0,46,[-0.33125],[-0.3125],[1],[0],[0],[2.4356927000008],['target'],46,0,46,0,148.4779757000033,,,,,5,148.4597188000007,148.4779757000033,148.4779757000033,0.012628899999981513,150.8957842000018,[-0.33125],[-0.3125],[1],[0],[0],[2.4356927000008],['target'],004,2024-10-10_12h19.04.873,visualsearchtask,2024.2.1,61.277964199668325,2024-10-10 12h19.33.421965 +0530,
47,0,47,[0.30375],[-0.20625],[1],[0],[0],[4.056265900002472],['target'],47,0,47,0,150.93364960000326,,,,,10,150.92069880000054,150.93364960000326,150.93364960000326,0.024806199999147793,154.9773688000023,[0.30375],[-0.20625],[1],[0],[0],[4.056265900002472],['target'],004,2024-10-10_12h19.04.873,visualsearchtask,2024.2.1,61.277964199668325,2024-10-10 12h19.33.421965 +0530,
48,0,48,[-0.20875],[-0.23875],[1],[0],[0],[2.2367240999992646],['target'],48,0,48,0,155.0086048000012,,,,,5,154.98973540000225,155.0086048000012,155.0086048000012,0.012217700001201592,157.2269069000031,[-0.20875],[-0.23875],[1],[0],[0],[2.2367240999992646],['target'],004,2024-10-10_12h19.04.873,visualsearchtask,2024.2.1,61.277964199668325,2024-10-10 12h19.33.421965 +0530,
49,0,49,[0.125],[-0.1225],[1],[0],[0],[2.5570422999990114],['target'],49,0,49,0,157.2631977000019,,,,,10,157.25086300000112,157.2631977000019,157.2631977000019,0.02381949999835342,159.80827980000322,[0.125],[-0.1225],[1],[0],[0],[2.5570422999990114],['target'],004,2024-10-10_12h19.04.873,visualsearchtask,2024.2.1,61.277964199668325,2024-10-10 12h19.33.421965 +0530,
50,0,50,[-0.2],[0.45625],[1],[0],[0],[2.3181053000007523],['target'],50,0,50,0,159.83970390000104,,,,,5,159.82274020000114,159.83970390000104,159.83970390000104,0.014255900001444388,162.14120040000125,[-0.2],[0.45625],[1],[0],[0],[2.3181053000007523],['target'],004,2024-10-10_12h19.04.873,visualsearchtask,2024.2.1,61.277964199668325,2024-10-10 12h19.33.421965 +0530,
51,0,51,[0.32375],[-0.14375],[1],[0],[0],[3.304705800001102],['target'],51,0,51,0,162.18110470000101,,,,,10,162.16753880000033,162.18110470000101,162.18110470000101,0.026183299996773712,165.472689000002,[0.32375],[-0.14375],[1],[0],[0],[3.304705800001102],['target'],004,2024-10-10_12h19.04.873,visualsearchtask,2024.2.1,61.277964199668325,2024-10-10 12h19.33.421965 +0530,
52,0,52,[-0.205],[-0.295],[1],[0],[0],[2.2190703000014764],['target'],52,0,52,0,165.50382490000266,,,,,5,165.48574210000152,165.50382490000266,165.50382490000266,0.012895500000013271,167.7051687000021,[-0.205],[-0.295],[1],[0],[0],[2.2190703000014764],['target'],004,2024-10-10_12h19.04.873,visualsearchtask,2024.2.1,61.277964199668325,2024-10-10 12h19.33.421965 +0530,
53,0,53,[0.2525],[-0.28],[1],[0],[0],[2.904634400001669],['target'],53,0,53,0,167.74382640000113,,,,,10,167.7321625000004,167.74382640000113,167.74382640000113,0.02683479999905103,170.63716710000153,[0.2525],[-0.28],[1],[0],[0],[2.904634400001669],['target'],004,2024-10-10_12h19.04.873,visualsearchtask,2024.2.1,61.277964199668325,2024-10-10 12h19.33.421965 +0530,
54,0,54,[0.02625],[-0.27375],[1],[0],[0],[3.616481600001862],['target'],54,0,54,0,170.66905220000262,,,,,5,170.65200190000178,170.66905220000262,170.66905220000262,0.014657899999292567,174.26885510000284,[0.02625],[-0.27375],[1],[0],[0],[3.616481600001862],['target'],004,2024-10-10_12h19.04.873,visualsearchtask,2024.2.1,61.277964199668325,2024-10-10 12h19.33.421965 +0530,
55,0,55,[0.08625],[0.3525],[1],[0],[0],[2.400765099999262],['target'],55,0,55,0,174.30055540000103,,,,,5,174.28334130000076,174.30055540000103,174.30055540000103,0.01431389999925159,176.68448450000142,[0.08625],[0.3525],[1],[0],[0],[2.400765099999262],['target'],004,2024-10-10_12h19.04.873,visualsearchtask,2024.2.1,61.277964199668325,2024-10-10 12h19.33.421965 +0530,
56,0,56,[-0.40875],[0.01625],[1],[0],[0],[2.685868600001413],['target'],56,0,56,0,176.71639400000277,,,,,5,176.69729500000176,176.71639400000277,176.71639400000277,0.012678600000072038,179.38358850000077,[-0.40875],[0.01625],[1],[0],[0],[2.685868600001413],['target'],004,2024-10-10_12h19.04.873,visualsearchtask,2024.2.1,61.277964199668325,2024-10-10 12h19.33.421965 +0530,
57,0,57,[-0.30125],[0.43],[1],[0],[0],[3.8912859999982174],['target'],57,0,57,0,179.4204221,,,,,10,179.40882120000242,179.4204221,179.4204221,0.025061300002562348,183.30051390000153,[-0.30125],[0.43],[1],[0],[0],[3.8912859999982174],['target'],004,2024-10-10_12h19.04.873,visualsearchtask,2024.2.1,61.277964199668325,2024-10-10 12h19.33.421965 +0530,
58,0,58,[-0.25875],[-0.23],[1],[0],[0],[3.0842583000012382],['target'],58,0,58,0,183.329460500001,,,,,5,183.31251800000246,183.329460500001,183.329460500001,0.011842799998703413,186.39714670000103,[-0.25875],[-0.23],[1],[0],[0],[3.0842583000012382],['target'],004,2024-10-10_12h19.04.873,visualsearchtask,2024.2.1,61.277964199668325,2024-10-10 12h19.33.421965 +0530,
59,0,59,[-0.47625],[-0.22125],[1],[0],[0],[2.591491199997108],['target'],59,0,59,0,186.4331732999999,,,,,10,186.42055790000086,186.4331732999999,186.4331732999999,0.023284200000489363,189.01249570000073,[-0.47625],[-0.22125],[1],[0],[0],[2.591491199997108],['target'],004,2024-10-10_12h19.04.873,visualsearchtask,2024.2.1,61.277964199668325,2024-10-10 12h19.33.421965 +0530,
60,0,60,[0.03875],[-0.46125],[1],[0],[0],[3.8565087000024505],['target'],60,0,60,0,189.04960070000016,,,,,10,189.03747280000243,189.04960070000016,189.04960070000016,0.024820099999487866,192.8944119000007,[0.03875],[-0.46125],[1],[0],[0],[3.8565087000024505],['target'],004,2024-10-10_12h19.04.873,visualsearchtask,2024.2.1,61.277964199668325,2024-10-10 12h19.33.421965 +0530,
61,0,61,[-0.0675],[-0.20125],[1],[0],[0],[3.3576167999999598],['target'],61,0,61,0,192.9303832000005,,,,,10,192.91841790000035,192.9303832000005,192.9303832000005,0.02383390000250074,196.27636640000128,[-0.0675],[-0.20125],[1],[0],[0],[3.3576167999999598],['target'],004,2024-10-10_12h19.04.873,visualsearchtask,2024.2.1,61.277964199668325,2024-10-10 12h19.33.421965 +0530,
62,0,62,[-0.00375],[-0.17875],[1],[0],[0],[2.4176183000017772],['target'],62,0,62,0,196.3080323000031,,,,,5,196.29038870000295,196.3080323000031,196.3080323000031,0.013815999998769257,198.70836210000198,[-0.00375],[-0.17875],[1],[0],[0],[2.4176183000017772],['target'],004,2024-10-10_12h19.04.873,visualsearchtask,2024.2.1,61.277964199668325,2024-10-10 12h19.33.421965 +0530,
63,0,63,[0.21125],[0.2],[1],[0],[0],[3.592542099999264],['target'],63,0,63,0,198.74309420000282,,,,,10,198.73125940000318,198.74309420000282,198.74309420000282,0.022782799998822156,202.32418020000114,[0.21125],[0.2],[1],[0],[0],[3.592542099999264],['target'],004,2024-10-10_12h19.04.873,visualsearchtask,2024.2.1,61.277964199668325,2024-10-10 12h19.33.421965 +0530,
64,0,64,[0.4875],[-0.32375],[1],[0],[0],[3.3077278999990085],['target'],64,0,64,0,202.36027319999994,,,,,10,202.3482017000024,202.36027319999994,202.36027319999994,0.023874399998021545,205.65636710000035,[0.4875],[-0.32375],[1],[0],[0],[3.3077278999990085],['target'],004,2024-10-10_12h19.04.873,visualsearchtask,2024.2.1,61.277964199668325,2024-10-10 12h19.33.421965 +0530,
65,0,65,[-0.205],[-0.03125],[1],[0],[0],[1.952331000000413],['target'],65,0,65,0,205.68703780000214,,,,,5,205.66863920000105,205.68703780000214,205.68703780000214,0.012061099998391,207.6213338000016,[-0.205],[-0.03125],[1],[0],[0],[1.952331000000413],['target'],004,2024-10-10_12h19.04.873,visualsearchtask,2024.2.1,61.277964199668325,2024-10-10 12h19.33.421965 +0530,
66,0,66,[-0.275],[0.23],[1],[0],[0],[2.4670562999999675],['target'],66,0,66,0,207.65251790000184,,,,,5,207.63590660000045,207.65251790000184,207.65251790000184,0.014395599999261321,210.10335490000216,[-0.275],[0.23],[1],[0],[0],[2.4670562999999675],['target'],004,2024-10-10_12h19.04.873,visualsearchtask,2024.2.1,61.277964199668325,2024-10-10 12h19.33.421965 +0530,
67,0,67,[-0.34],[-0.06625],[1],[0],[0],[2.9853251999993518],['target'],67,0,67,0,210.13429910000195,,,,,5,210.11638220000168,210.13429910000195,210.13429910000195,0.012899400000605965,213.10205960000167,[-0.34],[-0.06625],[1],[0],[0],[2.9853251999993518],['target'],004,2024-10-10_12h19.04.873,visualsearchtask,2024.2.1,61.277964199668325,2024-10-10 12h19.33.421965 +0530,
68,0,68,[-0.155],[-0.2925],[1],[0],[0],[2.142486099997768],['target'],68,0,68,0,213.13718140000128,,,,,10,213.12522470000113,213.13718140000128,213.13718140000128,0.02303620000020601,215.26809180000055,[-0.155],[-0.2925],[1],[0],[0],[2.142486099997768],['target'],004,2024-10-10_12h19.04.873,visualsearchtask,2024.2.1,61.277964199668325,2024-10-10 12h19.33.421965 +0530,
69,0,69,[0.26375],[0.25875],[1],[0],[0],[1.767307800000708],['target'],69,0,69,0,215.29989620000197,,,,,5,215.28294460000325,215.29989620000197,215.29989620000197,0.014649400000052992,217.0506447000007,[0.26375],[0.25875],[1],[0],[0],[1.767307800000708],['target'],004,2024-10-10_12h19.04.873,visualsearchtask,2024.2.1,61.277964199668325,2024-10-10 12h19.33.421965 +0530,
70,0,70,[0.305],[0.045],[1],[0],[0],[2.5398669999995036],['target'],70,0,70,0,217.0887462999999,,,,,10,217.07611850000103,217.0887462999999,217.0887462999999,0.025298799999291077,219.61634709999998,[0.305],[0.045],[1],[0],[0],[2.5398669999995036],['target'],004,2024-10-10_12h19.04.873,visualsearchtask,2024.2.1,61.277964199668325,2024-10-10 12h19.33.421965 +0530,
71,0,71,[0.11375],[-0.41875],[1],[0],[0],[2.469554999999673],['target'],71,0,71,0,219.6477558000006,,,,,5,219.62866170000052,219.6477558000006,219.6477558000006,0.012160800000856398,222.09855210000023,[0.11375],[-0.41875],[1],[0],[0],[2.469554999999673],['target'],004,2024-10-10_12h19.04.873,visualsearchtask,2024.2.1,61.277964199668325,2024-10-10 12h19.33.421965 +0530,
72,0,72,[0.44],[-0.07],[1],[0],[0],[3.008741199999349],['target'],72,0,72,0,222.13434330000018,,,,,10,222.12184990000242,222.13434330000018,222.13434330000018,0.02316879999852972,225.1309422000013,[0.44],[-0.07],[1],[0],[0],[3.008741199999349],['target'],004,2024-10-10_12h19.04.873,visualsearchtask,2024.2.1,61.277964199668325,2024-10-10 12h19.33.421965 +0530,
73,0,73,[-0.085],[-0.08375],[1],[0],[0],[1.953118599998561],['target'],73,0,73,0,225.16150840000046,,,,,5,225.14280950000102,225.16150840000046,225.16150840000046,0.011708699999871897,227.09632670000065,[-0.085],[-0.08375],[1],[0],[0],[1.953118599998561],['target'],004,2024-10-10_12h19.04.873,visualsearchtask,2024.2.1,61.277964199668325,2024-10-10 12h19.33.421965 +0530,
74,0,74,[0.40375],[0.1325],[1],[0],[0],[3.1226212000001397],['target'],74,0,74,0,227.13390960000106,,,,,10,227.12186180000208,227.13390960000106,227.13390960000106,0.025378599999385187,230.24493590000202,[0.40375],[0.1325],[1],[0],[0],[3.1226212000001397],['target'],004,2024-10-10_12h19.04.873,visualsearchtask,2024.2.1,61.277964199668325,2024-10-10 12h19.33.421965 +0530,
75,0,75,[0.15875],[0.29375],[1],[0],[0],[2.48641520000092],['target'],75,0,75,0,230.27614480000193,,,,,5,230.25719730000128,230.27614480000193,230.27614480000193,0.012103700002626283,232.74397750000207,[0.15875],[0.29375],[1],[0],[0],[2.48641520000092],['target'],004,2024-10-10_12h19.04.873,visualsearchtask,2024.2.1,61.277964199668325,2024-10-10 12h19.33.421965 +0530,
76,0,76,[-0.25375],[-0.41125],[1],[0],[0],[2.5899018999989494],['target'],76,0,76,0,232.78141270000197,,,,,10,232.76905090000218,232.78141270000197,232.78141270000197,0.024926800000685034,235.35937689999992,[-0.25375],[-0.41125],[1],[0],[0],[2.5899018999989494],['target'],004,2024-10-10_12h19.04.873,visualsearchtask,2024.2.1,61.277964199668325,2024-10-10 12h19.33.421965 +0530,
77,0,77,[0.135],[-0.0375],[1],[0],[0],[2.1535991999990074],['target'],77,0,77,0,235.39119890000075,,,,,5,235.37115180000183,235.39119890000075,235.39119890000075,0.01160130000062054,237.52508560000206,[0.135],[-0.0375],[1],[0],[0],[2.1535991999990074],['target'],004,2024-10-10_12h19.04.873,visualsearchtask,2024.2.1,61.277964199668325,2024-10-10 12h19.33.421965 +0530,
78,0,78,[-0.41],[-0.395],[1],[0],[0],[3.641814599999634],['target'],78,0,78,0,237.56020490000083,,,,,10,237.54798890000166,237.56020490000083,237.56020490000083,0.02277420000245911,241.19013850000192,[-0.41],[-0.395],[1],[0],[0],[3.641814599999634],['target'],004,2024-10-10_12h19.04.873,visualsearchtask,2024.2.1,61.277964199668325,2024-10-10 12h19.33.421965 +0530,
79,0,79,[-0.1025],[0.04125],[1],[0],[0],[2.1752269999997225],['target'],79,0,79,0,241.22614480000266,,,,,10,241.2137169000016,241.22614480000266,241.22614480000266,0.02343050000126823,243.38940280000315,[-0.1025],[0.04125],[1],[0],[0],[2.1752269999997225],['target'],004,2024-10-10_12h19.04.873,visualsearchtask,2024.2.1,61.277964199668325,2024-10-10 12h19.33.421965 +0530,
80,0,80,[0.4675],[-0.12375],[1],[0],[0],[2.7081551999981457],['target'],80,0,80,0,243.4248359000012,,,,,10,243.4130163000009,243.4248359000012,243.4248359000012,0.023382600000331877,246.1215222000028,[0.4675],[-0.12375],[1],[0],[0],[2.7081551999981457],['target'],004,2024-10-10_12h19.04.873,visualsearchtask,2024.2.1,61.277964199668325,2024-10-10 12h19.33.421965 +0530,
81,0,81,[-0.30125],[0.05875],[1],[0],[0],[1.787050700000691],['target'],81,0,81,0,246.15308270000241,,,,,5,246.1333302000021,246.15308270000241,246.15308270000241,0.011617899999691872,247.92075960000147,[-0.30125],[0.05875],[1],[0],[0],[1.787050700000691],['target'],004,2024-10-10_12h19.04.873,visualsearchtask,2024.2.1,61.277964199668325,2024-10-10 12h19.33.421965 +0530,
82,0,82,[0.35875],[-0.09125],[1],[0],[0],[2.608517699998629],['target'],82,0,82,0,247.95697510000173,,,,,10,247.94432170000073,247.95697510000173,247.95697510000173,0.02336519999880693,250.55316860000312,[0.35875],[-0.09125],[1],[0],[0],[2.608517699998629],['target'],004,2024-10-10_12h19.04.873,visualsearchtask,2024.2.1,61.277964199668325,2024-10-10 12h19.33.421965 +0530,
83,0,83,[0.31875],[-0.1225],[1],[0],[0],[2.2522633000007772],['target'],83,0,83,0,250.58389520000128,,,,,5,250.565653200003,250.58389520000128,250.58389520000128,0.012331199999607634,252.8183022000012,[0.31875],[-0.1225],[1],[0],[0],[2.2522633000007772],['target'],004,2024-10-10_12h19.04.873,visualsearchtask,2024.2.1,61.277964199668325,2024-10-10 12h19.33.421965 +0530,
84,0,84,[-0.19125],[0.11875],[1],[0],[0],[3.3334222000012232],['target'],84,0,84,0,252.85033440000188,,,,,5,252.8330285000011,252.85033440000188,252.85033440000188,0.014570300001651049,256.1668254000033,[-0.19125],[0.11875],[1],[0],[0],[3.3334222000012232],['target'],004,2024-10-10_12h19.04.873,visualsearchtask,2024.2.1,61.277964199668325,2024-10-10 12h19.33.421965 +0530,
85,0,85,[-0.195],[0.48375],[1],[0],[0],[2.8873601999985112],['target'],85,0,85,0,256.1977415000001,,,,,5,256.17883110000184,256.1977415000001,256.1977415000001,0.01187509999726899,259.0665900000022,[-0.195],[0.48375],[1],[0],[0],[2.8873601999985112],['target'],004,2024-10-10_12h19.04.873,visualsearchtask,2024.2.1,61.277964199668325,2024-10-10 12h19.33.421965 +0530,
86,0,86,[-0.3925],[-0.28625],[1],[0],[0],[3.2049431999985245],['target'],86,0,86,0,259.10438890000296,,,,,10,259.09282130000065,259.10438890000296,259.10438890000296,0.0260746999992989,262.2981114000031,[-0.3925],[-0.28625],[1],[0],[0],[3.2049431999985245],['target'],004,2024-10-10_12h19.04.873,visualsearchtask,2024.2.1,61.277964199668325,2024-10-10 12h19.33.421965 +0530,
87,0,87,[0.17875],[-0.2375],[1],[0],[0],[2.319760499998665],['target'],87,0,87,0,262.3284338000012,,,,,5,262.3100129000013,262.3284338000012,262.3284338000012,0.011746000000130152,264.6301300000014,[0.17875],[-0.2375],[1],[0],[0],[2.319760499998665],['target'],004,2024-10-10_12h19.04.873,visualsearchtask,2024.2.1,61.277964199668325,2024-10-10 12h19.33.421965 +0530,
88,0,88,[0.12875],[0.0725],[1],[0],[0],[2.569494699997449],['target'],88,0,88,0,264.6620862000018,,,,,5,264.6422825000009,264.6620862000018,264.6620862000018,0.012005799999315059,267.2121537000021,[0.12875],[0.0725],[1],[0],[0],[2.569494699997449],['target'],004,2024-10-10_12h19.04.873,visualsearchtask,2024.2.1,61.277964199668325,2024-10-10 12h19.33.421965 +0530,
89,0,89,[0.41625],[0.13875],[1],[0],[0],[2.3898036000027787],['target'],89,0,89,0,267.250396200001,,,,,10,267.23829020000267,267.250396200001,267.250396200001,0.025979800000641262,269.62848790000135,[0.41625],[0.13875],[1],[0],[0],[2.3898036000027787],['target'],004,2024-10-10_12h19.04.873,visualsearchtask,2024.2.1,61.277964199668325,2024-10-10 12h19.33.421965 +0530,
90,0,90,[0.3725],[0.2],[1],[0],[0],[2.838902399998915],['target'],90,0,90,0,269.66661840000233,,,,,10,269.6540093000003,269.66661840000233,269.66661840000233,0.02532939999946393,272.4933598000025,[0.3725],[0.2],[1],[0],[0],[2.838902399998915],['target'],004,2024-10-10_12h19.04.873,visualsearchtask,2024.2.1,61.277964199668325,2024-10-10 12h19.33.421965 +0530,
91,0,91,[0.2675],[-0.23],[1],[0],[0],[2.342161100001249],['target'],91,0,91,0,272.5287182000029,,,,,10,272.5168128000005,272.5287182000029,272.5287182000029,0.023291400000744034,274.85934610000186,[0.2675],[-0.23],[1],[0],[0],[2.342161100001249],['target'],004,2024-10-10_12h19.04.873,visualsearchtask,2024.2.1,61.277964199668325,2024-10-10 12h19.33.421965 +0530,
92,0,92,[0.02875],[-0.2575],[1],[0],[0],[3.28386429999955],['target'],92,0,92,0,274.8905994000015,,,,,5,274.87373800000205,274.8905994000015,274.8905994000015,0.014201300000422634,278.1580021000009,[0.02875],[-0.2575],[1],[0],[0],[3.28386429999955],['target'],004,2024-10-10_12h19.04.873,visualsearchtask,2024.2.1,61.277964199668325,2024-10-10 12h19.33.421965 +0530,
93,0,93,[0.36375],[-0.45125],[1],[0],[0],[2.7668879000011657],['target'],93,0,93,0,278.18869650000124,,,,,5,278.1723852000032,278.18869650000124,278.18869650000124,0.01422919999822625,280.93967090000297,[0.36375],[-0.45125],[1],[0],[0],[2.7668879000011657],['target'],004,2024-10-10_12h19.04.873,visualsearchtask,2024.2.1,61.277964199668325,2024-10-10 12h19.33.421965 +0530,
94,0,94,[0.335],[-0.41625],[1],[0],[0],[2.225218200001109],['target'],94,0,94,0,280.9750939000005,,,,,10,280.9628155999999,280.9750939000005,280.9750939000005,0.023012100002233637,283.18833090000044,[0.335],[-0.41625],[1],[0],[0],[2.225218200001109],['target'],004,2024-10-10_12h19.04.873,visualsearchtask,2024.2.1,61.277964199668325,2024-10-10 12h19.33.421965 +0530,
95,0,95,[-0.0725],[0.42625],[1],[0],[0],[3.57432659999904],['target'],95,0,95,0,283.2259292000017,,,,,10,283.213177200003,283.2259292000017,283.2259292000017,0.024699999998119893,286.7878791000003,[-0.0725],[0.42625],[1],[0],[0],[3.57432659999904],['target'],004,2024-10-10_12h19.04.873,visualsearchtask,2024.2.1,61.277964199668325,2024-10-10 12h19.33.421965 +0530,
96,0,96,[0.02],[-0.075],[1],[0],[0],[2.5722332000004826],['target'],96,0,96,0,286.8256727000007,,,,,10,286.8134628000007,286.8256727000007,286.8256727000007,0.025372699998115422,289.38611030000175,[0.02],[-0.075],[1],[0],[0],[2.5722332000004826],['target'],004,2024-10-10_12h19.04.873,visualsearchtask,2024.2.1,61.277964199668325,2024-10-10 12h19.33.421965 +0530,
97,0,97,[0.05875],[0.245],[1],[0],[0],[4.4746707000012975],['target'],97,0,97,0,289.42072630000257,,,,,10,289.4091189999999,289.42072630000257,289.42072630000257,0.02284019999933662,293.88414080000075,[0.05875],[0.245],[1],[0],[0],[4.4746707000012975],['target'],004,2024-10-10_12h19.04.873,visualsearchtask,2024.2.1,61.277964199668325,2024-10-10 12h19.33.421965 +0530,
98,0,98,[-0.08125],[0.215],[1],[0],[0],[1.9262005999989924],['target'],98,0,98,0,293.9202553000032,,,,,10,293.9078851000013,293.9202553000032,293.9202553000032,0.023594199999934062,295.8344874000031,[-0.08125],[0.215],[1],[0],[0],[1.9262005999989924],['target'],004,2024-10-10_12h19.04.873,visualsearchtask,2024.2.1,61.277964199668325,2024-10-10 12h19.33.421965 +0530,
99,0,99,[-0.45625],[-0.125],[1],[0],[0],[2.4067402000000584],['target'],99,0,99,0,295.8713480000006,,,,,10,295.8584504999999,295.8713480000006,295.8713480000006,0.023769600000377977,298.2655783000009,[-0.45625],[-0.125],[1],[0],[0],[2.4067402000000584],['target'],004,2024-10-10_12h19.04.873,visualsearchtask,2024.2.1,61.277964199668325,2024-10-10 12h19.33.421965 +0530,
100,0,100,[0.0775],[-0.27125],[1],[0],[0],[2.2335456000000704],['target'],100,0,100,0,298.2963333000007,,,,,5,298.28099000000293,298.2963333000007,298.2963333000007,0.015217699998174794,300.51494260000254,[0.0775],[-0.27125],[1],[0],[0],[2.2335456000000704],['target'],004,2024-10-10_12h19.04.873,visualsearchtask,2024.2.1,61.277964199668325,2024-10-10 12h19.33.421965 +0530,
101,0,101,[0.11125],[0.02625],[1],[0],[0],[1.8894196000001102],['target'],101,0,101,0,300.5525583000017,,,,,10,300.5406219000033,300.5525583000017,300.5525583000017,0.025531100000080187,302.4303959000026,[0.11125],[0.02625],[1],[0],[0],[1.8894196000001102],['target'],004,2024-10-10_12h19.04.873,visualsearchtask,2024.2.1,61.277964199668325,2024-10-10 12h19.33.421965 +0530,
102,0,102,[0.1625],[-0.17875],[1],[0],[0],[2.0371360999997705],['target'],102,0,102,0,302.46203230000174,,,,,5,302.4421564000004,302.46203230000174,302.46203230000174,0.011607399999775225,304.47968089999995,[0.1625],[-0.17875],[1],[0],[0],[2.0371360999997705],['target'],004,2024-10-10_12h19.04.873,visualsearchtask,2024.2.1,61.277964199668325,2024-10-10 12h19.33.421965 +0530,
103,0,103,[0.26625],[0.3325],[1],[0],[0],[3.8866860999987694],['target'],103,0,103,0,304.5113154999999,,,,,5,304.4915282000002,304.5113154999999,304.5113154999999,0.011718499998096377,308.3785846000028,[0.26625],[0.3325],[1],[0],[0],[3.8866860999987694],['target'],004,2024-10-10_12h19.04.873,visualsearchtask,2024.2.1,61.277964199668325,2024-10-10 12h19.33.421965 +0530,
104,0,104,[0.28875],[0.45375],[1],[0],[0],[2.285859999999957],['target'],104,0,104,0,308.4090602000033,,,,,5,308.3905569000017,308.4090602000033,308.4090602000033,0.011840300001495052,310.67677090000143,[0.28875],[0.45375],[1],[0],[0],[2.285859999999957],['target'],004,2024-10-10_12h19.04.873,visualsearchtask,2024.2.1,61.277964199668325,2024-10-10 12h19.33.421965 +0530,
105,0,105,[0.25625],[0.0675],[1],[0],[0],[2.0336616999993566],['target'],105,0,105,0,310.7092388000019,,,,,5,310.69213800000216,310.7092388000019,310.7092388000019,0.015200199999526376,312.72619940000004,[0.25625],[0.0675],[1],[0],[0],[2.0336616999993566],['target'],004,2024-10-10_12h19.04.873,visualsearchtask,2024.2.1,61.277964199668325,2024-10-10 12h19.33.421965 +0530,
106,0,106,[0.005],[-0.3875],[1],[0],[0],[2.972465999999258],['target'],106,0,106,0,312.7650777000017,,,,,10,312.75205840000126,312.7650777000017,312.7650777000017,0.025699099998746533,315.7248372000031,[0.005],[-0.3875],[1],[0],[0],[2.972465999999258],['target'],004,2024-10-10_12h19.04.873,visualsearchtask,2024.2.1,61.277964199668325,2024-10-10 12h19.33.421965 +0530,
107,0,107,[-0.07125],[0.2275],[1],[0],[0],[3.219812600000296],['target'],107,0,107,0,315.75679650000166,,,,,5,315.7367852000025,315.75679650000166,315.75679650000166,0.01179509999928996,318.95694210000147,[-0.07125],[0.2275],[1],[0],[0],[3.219812600000296],['target'],004,2024-10-10_12h19.04.873,visualsearchtask,2024.2.1,61.277964199668325,2024-10-10 12h19.33.421965 +0530,
108,0,108,[0.475],[-0.18125],[1],[0],[0],[2.3863524999978836],['target'],108,0,108,0,318.98838770000293,,,,,5,318.9689658000025,318.98838770000293,318.98838770000293,0.011901900001248578,321.3556625000019,[0.475],[-0.18125],[1],[0],[0],[2.3863524999978836],['target'],004,2024-10-10_12h19.04.873,visualsearchtask,2024.2.1,61.277964199668325,2024-10-10 12h19.33.421965 +0530,
109,0,109,[0.25625],[-0.4625],[1],[0],[0],[3.589800900001137],['target'],109,0,109,0,321.3926517,,,,,10,321.3801181000017,321.3926517,321.3926517,0.024304900001880014,324.97024840000086,[0.25625],[-0.4625],[1],[0],[0],[3.589800900001137],['target'],004,2024-10-10_12h19.04.873,visualsearchtask,2024.2.1,61.277964199668325,2024-10-10 12h19.33.421965 +0530,
110,0,110,[-0.34875],[0.15125],[1],[0],[0],[2.6237330000003567],['target'],110,0,110,0,325.008600000001,,,,,10,324.99604880000334,325.008600000001,325.008600000001,0.025636099999246653,327.6201260000016,[-0.34875],[0.15125],[1],[0],[0],[2.6237330000003567],['target'],004,2024-10-10_12h19.04.873,visualsearchtask,2024.2.1,61.277964199668325,2024-10-10 12h19.33.421965 +0530,
111,0,111,[0.33125],[0.15625],[1],[0],[0],[2.150785800000449],['target'],111,0,111,0,327.6514870000028,,,,,5,327.63450510000257,327.6514870000028,327.6514870000028,0.014166699998895638,329.7856634000018,[0.33125],[0.15625],[1],[0],[0],[2.150785800000449],['target'],004,2024-10-10_12h19.04.873,visualsearchtask,2024.2.1,61.277964199668325,2024-10-10 12h19.33.421965 +0530,
112,0,112,[0.4025],[0.46625],[1],[0],[0],[2.722784599998704],['target'],112,0,112,0,329.8232515000018,,,,,10,329.8111647000005,329.8232515000018,329.8232515000018,0.025335100002848776,332.5343113000017,[0.4025],[0.46625],[1],[0],[0],[2.722784599998704],['target'],004,2024-10-10_12h19.04.873,visualsearchtask,2024.2.1,61.277964199668325,2024-10-10 12h19.33.421965 +0530,
113,0,113,[0.405],[0.225],[1],[0],[0],[1.653680200000963],['target'],113,0,113,0,332.5661431000008,,,,,5,332.54631789999985,332.5661431000008,332.5661431000008,0.011819700001069577,334.2003240000013,[0.405],[0.225],[1],[0],[0],[1.653680200000963],['target'],004,2024-10-10_12h19.04.873,visualsearchtask,2024.2.1,61.277964199668325,2024-10-10 12h19.33.421965 +0530,
114,0,114,[0.37875],[-0.235],[1],[0],[0],[2.952888100000564],['target'],114,0,114,0,334.23218270000143,,,,,5,334.21211590000166,334.23218270000143,334.23218270000143,0.01166919999741367,337.16536690000066,[0.37875],[-0.235],[1],[0],[0],[2.952888100000564],['target'],004,2024-10-10_12h19.04.873,visualsearchtask,2024.2.1,61.277964199668325,2024-10-10 12h19.33.421965 +0530,
115,0,115,[-0.10875],[-0.27875],[1],[0],[0],[1.8917809999984456],['target'],115,0,115,0,337.20179530000314,,,,,10,337.18935280000005,337.20179530000314,337.20179530000314,0.023827699998946628,339.0815322000017,[-0.10875],[-0.27875],[1],[0],[0],[1.8917809999984456],['target'],004,2024-10-10_12h19.04.873,visualsearchtask,2024.2.1,61.277964199668325,2024-10-10 12h19.33.421965 +0530,
116,0,116,[0.31375],[-0.26125],[1],[0],[0],[2.0034296000012546],['target'],116,0,116,0,339.1135709000009,,,,,5,339.0934938999999,339.1135709000009,339.1135709000009,0.011784700000134762,341.0972875000007,[0.31375],[-0.26125],[1],[0],[0],[2.0034296000012546],['target'],004,2024-10-10_12h19.04.873,visualsearchtask,2024.2.1,61.277964199668325,2024-10-10 12h19.33.421965 +0530,
117,0,117,[0.3075],[0.24875],[1],[0],[0],[2.608627499997965],['target'],117,0,117,0,341.13231129999986,,,,,10,341.1206226000031,341.13231129999986,341.13231129999986,0.023208200000226498,343.7295989000013,[0.3075],[0.24875],[1],[0],[0],[2.608627499997965],['target'],004,2024-10-10_12h19.04.873,visualsearchtask,2024.2.1,61.277964199668325,2024-10-10 12h19.33.421965 +0530,
118,0,118,[0.33875],[0.1325],[1],[0],[0],[1.6905529999967257],['target'],118,0,118,0,343.76760000000286,,,,,10,343.7553758000031,343.76760000000286,343.76760000000286,0.025583099999494152,345.44640380000055,[0.33875],[0.1325],[1],[0],[0],[1.6905529999967257],['target'],004,2024-10-10_12h19.04.873,visualsearchtask,2024.2.1,61.277964199668325,2024-10-10 12h19.33.421965 +0530,
119,0,119,[-0.25125],[0.1325],[1],[0],[0],[2.9416152000012517],['target'],119,0,119,0,345.48105710000164,,,,,10,345.4692243999998,345.48105710000164,345.48105710000164,0.02262200000041048,348.41125060000195,[-0.25125],[0.1325],[1],[0],[0],[2.9416152000012517],['target'],004,2024-10-10_12h19.04.873,visualsearchtask,2024.2.1,61.277964199668325,2024-10-10 12h19.33.421965 +0530,
120,0,120,[-0.3525],[-0.235],[1],[0],[0],[2.2871124999983294],['target'],120,0,120,0,348.4423777000011,,,,,5,348.4229321000021,348.4423777000011,348.4423777000011,0.01151679999748012,350.7103687000017,[-0.3525],[-0.235],[1],[0],[0],[2.2871124999983294],['target'],004,2024-10-10_12h19.04.873,visualsearchtask,2024.2.1,61.277964199668325,2024-10-10 12h19.33.421965 +0530,
121,0,121,[-0.38875],[-0.07125],[1],[0],[0],[3.118703899999673],['target'],121,0,121,0,350.74094830000104,,,,,5,350.7224500000011,350.74094830000104,350.74094830000104,0.011958499999309424,353.8415735000017,[-0.38875],[-0.07125],[1],[0],[0],[3.118703899999673],['target'],004,2024-10-10_12h19.04.873,visualsearchtask,2024.2.1,61.277964199668325,2024-10-10 12h19.33.421965 +0530,
122,0,122,[-0.395],[-0.15625],[1],[0],[0],[2.7533573000000615],['target'],122,0,122,0,353.87331370000175,,,,,5,353.8535397000014,353.87331370000175,353.87331370000175,0.011818200000561774,356.6071906000034,[-0.395],[-0.15625],[1],[0],[0],[2.7533573000000615],['target'],004,2024-10-10_12h19.04.873,visualsearchtask,2024.2.1,61.277964199668325,2024-10-10 12h19.33.421965 +0530,
123,0,123,[0.05],[-0.38125],[1],[0],[0],[2.4606362999984412],['target'],123,0,123,0,356.6434192000015,,,,,10,356.6311495000009,356.6434192000015,356.6434192000015,0.023848000000725733,359.09218300000066,[0.05],[-0.38125],[1],[0],[0],[2.4606362999984412],['target'],004,2024-10-10_12h19.04.873,visualsearchtask,2024.2.1,61.277964199668325,2024-10-10 12h19.33.421965 +0530,
124,0,124,[-0.18875],[0.15625],[1],[0],[0],[2.839000300002226],['target'],124,0,124,0,359.12872600000264,,,,,10,359.11593970000104,359.12872600000264,359.12872600000264,0.02360219999900437,361.955285,[-0.18875],[0.15625],[1],[0],[0],[2.839000300002226],['target'],004,2024-10-10_12h19.04.873,visualsearchtask,2024.2.1,61.277964199668325,2024-10-10 12h19.33.421965 +0530,
125,0,125,[0.09875],[-0.225],[1],[0],[0],[3.321551400000317],['target'],125,0,125,0,361.99326270000165,,,,,10,361.9814855000004,361.99326270000165,361.99326270000165,0.026005700001405785,365.3033591000021,[0.09875],[-0.225],[1],[0],[0],[3.321551400000317],['target'],004,2024-10-10_12h19.04.873,visualsearchtask,2024.2.1,61.277964199668325,2024-10-10 12h19.33.421965 +0530,
126,0,126,[-0.445],[0.15],[1],[0],[0],[2.2033699999992677],['target'],126,0,126,0,365.33510800000295,,,,,5,365.3153670000029,365.33510800000295,365.33510800000295,0.011832500000309665,367.5191048000015,[-0.445],[0.15],[1],[0],[0],[2.2033699999992677],['target'],004,2024-10-10_12h19.04.873,visualsearchtask,2024.2.1,61.277964199668325,2024-10-10 12h19.33.421965 +0530,
127,0,127,[0.44875],[0.08625],[1],[0],[0],[2.4923865999990085],['target'],127,0,127,0,367.55518010000014,,,,,10,367.54273230000035,367.55518010000014,367.55518010000014,0.023509400001785252,370.035538600001,[0.44875],[0.08625],[1],[0],[0],[2.4923865999990085],['target'],004,2024-10-10_12h19.04.873,visualsearchtask,2024.2.1,61.277964199668325,2024-10-10 12h19.33.421965 +0530,
128,0,128,[-0.01625],[0.145],[1],[0],[0],[2.972676199999114],['target'],128,0,128,0,370.0731005000016,,,,,10,370.06106230000296,370.0731005000016,370.0731005000016,0.02533200000107172,373.0341126000021,[-0.01625],[0.145],[1],[0],[0],[2.972676199999114],['target'],004,2024-10-10_12h19.04.873,visualsearchtask,2024.2.1,61.277964199668325,2024-10-10 12h19.33.421965 +0530,
129,0,129,[-0.01625],[0.145],[1],[0],[0],[0.6069662000008975],[None],129,0,129,0,373.07199820000096,,,,,10,373.05991220000215,373.07199820000096,373.07199820000096,0.025606899998820154,373.66730460000326,[-0.01625],[0.145],[1],[0],[0],[0.6069662000008975],[None],004,2024-10-10_12h19.04.873,visualsearchtask,2024.2.1,61.277964199668325,2024-10-10 12h19.33.421965 +0530,
130,0,130,[-0.33875],[0.3375],[1],[0],[0],[2.258057999999437],['target'],130,0,130,0,373.70259910000095,,,,,10,373.69070230000216,373.70259910000095,373.70259910000095,0.02323469999828376,375.94908580000265,[-0.33875],[0.3375],[1],[0],[0],[2.258057999999437],['target'],004,2024-10-10_12h19.04.873,visualsearchtask,2024.2.1,61.277964199668325,2024-10-10 12h19.33.421965 +0530,
131,0,131,[0.3875],[-0.33],[1],[0],[0],[2.3843784000018786],['target'],131,0,131,0,375.98065060000226,,,,,5,375.96329790000163,375.98065060000226,375.98065060000226,0.014016500001162058,378.3479726000005,[0.3875],[-0.33],[1],[0],[0],[2.3843784000018786],['target'],004,2024-10-10_12h19.04.873,visualsearchtask,2024.2.1,61.277964199668325,2024-10-10 12h19.33.421965 +0530,
132,0,132,[-0.31875],[0.29125],[1],[0],[0],[2.4754538999986835],['target'],132,0,132,0,378.3828934000012,,,,,10,378.37088270000095,378.3828934000012,378.3828934000012,0.02279139999882318,380.8466866000017,[-0.31875],[0.29125],[1],[0],[0],[2.4754538999986835],['target'],004,2024-10-10_12h19.04.873,visualsearchtask,2024.2.1,61.277964199668325,2024-10-10 12h19.33.421965 +0530,
133,0,133,[-0.01375],[-0.12125],[1],[0],[0],[2.9763911999980337],['target'],133,0,133,0,380.8817721000014,,,,,10,380.86907670000073,380.8817721000014,380.8817721000014,0.022238099998503458,383.8459415000034,[-0.01375],[-0.12125],[1],[0],[0],[2.9763911999980337],['target'],004,2024-10-10_12h19.04.873,visualsearchtask,2024.2.1,61.277964199668325,2024-10-10 12h19.33.421965 +0530,
134,0,134,[0.24375],[0.03],[1],[0],[0],[1.970101999999315],['target'],134,0,134,0,383.8771162000012,,,,,5,383.85783450000235,383.8771162000012,383.8771162000012,0.011733600000297884,385.82829180000044,[0.24375],[0.03],[1],[0],[0],[1.970101999999315],['target'],004,2024-10-10_12h19.04.873,visualsearchtask,2024.2.1,61.277964199668325,2024-10-10 12h19.33.421965 +0530,
135,0,135,[0.04625],[-0.26875],[1],[0],[0],[3.707418999998481],['target'],135,0,135,0,385.86390200000096,,,,,10,385.8517260000008,385.86390200000096,385.86390200000096,0.02331899999990128,389.5595389000009,[0.04625],[-0.26875],[1],[0],[0],[3.707418999998481],['target'],004,2024-10-10_12h19.04.873,visualsearchtask,2024.2.1,61.277964199668325,2024-10-10 12h19.33.421965 +0530,
136,0,136,[-0.2],[0.4425],[1],[0],[0],[2.3592252999987977],['target'],136,0,136,0,389.5942993000026,,,,,10,389.58211350000056,389.5942993000026,389.5942993000026,0.022383400002581766,391.94176030000017,[-0.2],[0.4425],[1],[0],[0],[2.3592252999987977],['target'],004,2024-10-10_12h19.04.873,visualsearchtask,2024.2.1,61.277964199668325,2024-10-10 12h19.33.421965 +0530,
137,0,137,[0.36875],[0.2425],[1],[0],[0],[2.204050399999687],['target'],137,0,137,0,391.97327150000274,,,,,5,391.95346320000317,391.97327150000274,391.97327150000274,0.011564099997485755,394.157877200003,[0.36875],[0.2425],[1],[0],[0],[2.204050399999687],['target'],004,2024-10-10_12h19.04.873,visualsearchtask,2024.2.1,61.277964199668325,2024-10-10 12h19.33.421965 +0530,
138,0,138,[-0.40375],[-0.1025],[1],[0],[0],[2.739544799998839],['target'],138,0,138,0,394.1953801000018,,,,,10,394.18347429999994,394.1953801000018,394.1953801000018,0.025441699999646517,396.92335580000145,[-0.40375],[-0.1025],[1],[0],[0],[2.739544799998839],['target'],004,2024-10-10_12h19.04.873,visualsearchtask,2024.2.1,61.277964199668325,2024-10-10 12h19.33.421965 +0530,
139,0,139,[-0.46125],[0.3625],[1],[0],[0],[2.1599201999997604],['target'],139,0,139,0,396.95801980000033,,,,,10,396.9456836999998,396.95801980000033,396.95801980000033,0.02217739999832702,399.10595840000315,[-0.46125],[0.3625],[1],[0],[0],[2.1599201999997604],['target'],004,2024-10-10_12h19.04.873,visualsearchtask,2024.2.1,61.277964199668325,2024-10-10 12h19.33.421965 +0530,
140,0,140,[-0.2525],[-0.15375],[1],[0],[0],[2.5894549999975425],['target'],140,0,140,0,399.1435115000022,,,,,10,399.13115930000276,399.1435115000022,399.1435115000022,0.025011199999426026,401.7210449000013,[-0.2525],[-0.15375],[1],[0],[0],[2.5894549999975425],['target'],004,2024-10-10_12h19.04.873,visualsearchtask,2024.2.1,61.277964199668325,2024-10-10 12h19.33.421965 +0530,
141,0,141,[0.11125],[0.005],[1],[0],[0],[1.986728600000788],['target'],141,0,141,0,401.7527777000032,,,,,5,401.732704500002,401.7527777000032,401.7527777000032,0.011496899998746812,403.7198058000031,[0.11125],[0.005],[1],[0],[0],[1.986728600000788],['target'],004,2024-10-10_12h19.04.873,visualsearchtask,2024.2.1,61.277964199668325,2024-10-10 12h19.33.421965 +0530,
142,0,142,[0.36625],[-0.135],[1],[0],[0],[4.003371999999217],['target'],142,0,142,0,403.75182660000064,,,,,5,403.73132930000065,403.75182660000064,403.75182660000064,0.011392199998226715,407.7350189000026,[0.36625],[-0.135],[1],[0],[0],[4.003371999999217],['target'],004,2024-10-10_12h19.04.873,visualsearchtask,2024.2.1,61.277964199668325,2024-10-10 12h19.33.421965 +0530,
143,0,143,[-0.19],[-0.42875],[1],[0],[0],[2.992189699998562],['target'],143,0,143,0,407.7706539000028,,,,,10,407.75803160000214,407.7706539000028,407.7706539000028,0.022895099999004742,410.7505753000005,[-0.19],[-0.42875],[1],[0],[0],[2.992189699998562],['target'],004,2024-10-10_12h19.04.873,visualsearchtask,2024.2.1,61.277964199668325,2024-10-10 12h19.33.421965 +0530,
144,0,144,[0.3],[0.41625],[1],[0],[0],[2.4699295999998867],['target'],144,0,144,0,410.78255230000286,,,,,5,410.7625799000016,410.78255230000286,410.78255230000286,0.011843899999803398,413.23288570000295,[0.3],[0.41625],[1],[0],[0],[2.4699295999998867],['target'],004,2024-10-10_12h19.04.873,visualsearchtask,2024.2.1,61.277964199668325,2024-10-10 12h19.33.421965 +0530,
145,0,145,[-0.33625],[0.47125],[1],[0],[0],[1.9540782999974908],['target'],145,0,145,0,413.26406900000075,,,,,5,413.2446884000019,413.26406900000075,413.26406900000075,0.01164240000071004,415.19915660000333,[-0.33625],[0.47125],[1],[0],[0],[1.9540782999974908],['target'],004,2024-10-10_12h19.04.873,visualsearchtask,2024.2.1,61.277964199668325,2024-10-10 12h19.33.421965 +0530,
146,0,146,[-0.42125],[-0.43125],[1],[0],[0],[2.4419358000013744],['target'],146,0,146,0,415.2339595000012,,,,,10,415.2219337000024,415.2339595000012,415.2339595000012,0.022625699999480275,417.66420730000027,[-0.42125],[-0.43125],[1],[0],[0],[2.4419358000013744],['target'],004,2024-10-10_12h19.04.873,visualsearchtask,2024.2.1,61.277964199668325,2024-10-10 12h19.33.421965 +0530,
147,0,147,[-0.46625],[0.29875],[1],[0],[0],[2.3203461000011885],['target'],147,0,147,0,417.6960117000017,,,,,5,417.67639229999986,417.6960117000017,417.6960117000017,0.012034700001095189,419.99718250000296,[-0.46625],[0.29875],[1],[0],[0],[2.3203461000011885],['target'],004,2024-10-10_12h19.04.873,visualsearchtask,2024.2.1,61.277964199668325,2024-10-10 12h19.33.421965 +0530,
148,0,148,[0.3],[-0.41625],[1],[0],[0],[2.420906199997262],['target'],148,0,148,0,420.0363216000005,,,,,10,420.0240537000027,420.0363216000005,420.0363216000005,0.026700800000980962,422.44531540000025,[0.3],[-0.41625],[1],[0],[0],[2.420906199997262],['target'],004,2024-10-10_12h19.04.873,visualsearchtask,2024.2.1,61.277964199668325,2024-10-10 12h19.33.421965 +0530,
149,0,149,[-0.095],[0.25625],[1],[0],[0],[2.1013041000005614],['target'],149,0,149,0,422.47731790000034,,,,,5,422.4595552000028,422.47731790000034,422.47731790000034,0.014046799999050563,424.5612338000028,[-0.095],[0.25625],[1],[0],[0],[2.1013041000005614],['target'],004,2024-10-10_12h19.04.873,visualsearchtask,2024.2.1,61.277964199668325,2024-10-10 12h19.33.421965 +0530,
150,0,150,[0.08],[0.335],[1],[0],[0],[2.0713298999980907],['target'],150,0,150,0,424.59271720000106,,,,,5,424.57318990000203,424.59271720000106,424.59271720000106,0.0118285000025935,426.6449328000017,[0.08],[0.335],[1],[0],[0],[2.0713298999980907],['target'],004,2024-10-10_12h19.04.873,visualsearchtask,2024.2.1,61.277964199668325,2024-10-10 12h19.33.421965 +0530,
151,0,151,[-0.45],[-0.475],[1],[0],[0],[2.951554200000828],['target'],151,0,151,0,426.67572660000224,,,,,5,426.65728240000317,426.67572660000224,426.67572660000224,0.012231099997734418,429.609187500002,[-0.45],[-0.475],[1],[0],[0],[2.951554200000828],['target'],004,2024-10-10_12h19.04.873,visualsearchtask,2024.2.1,61.277964199668325,2024-10-10 12h19.33.421965 +0530,
152,0,152,[0.0725],[0.33],[1],[0],[0],[2.752329400002054],['target'],152,0,152,0,429.6412474000026,,,,,5,429.62163390000205,429.6412474000026,429.6412474000026,0.012308800000027986,432.37436940000043,[0.0725],[0.33],[1],[0],[0],[2.752329400002054],['target'],004,2024-10-10_12h19.04.873,visualsearchtask,2024.2.1,61.277964199668325,2024-10-10 12h19.33.421965 +0530,
153,0,153,[-0.0625],[-0.035],[1],[0],[0],[2.3583188000011432],['target'],153,0,153,0,432.41073400000096,,,,,10,432.39793310000096,432.41073400000096,432.41073400000096,0.02343470000050729,434.7565444000029,[-0.0625],[-0.035],[1],[0],[0],[2.3583188000011432],['target'],004,2024-10-10_12h19.04.873,visualsearchtask,2024.2.1,61.277964199668325,2024-10-10 12h19.33.421965 +0530,
154,0,154,[0.16875],[0.38875],[1],[0],[0],[2.0088763999992807],['target'],154,0,154,0,434.792287100001,,,,,10,434.77983740000127,434.792287100001,434.792287100001,0.023148600001150044,436.7890995000016,[0.16875],[0.38875],[1],[0],[0],[2.0088763999992807],['target'],004,2024-10-10_12h19.04.873,visualsearchtask,2024.2.1,61.277964199668325,2024-10-10 12h19.33.421965 +0530,
155,0,155,[-0.1125],[0.2625],[1],[0],[0],[1.7093730000015057],['target'],155,0,155,0,436.8250078000019,,,,,10,436.81240120000075,436.8250078000019,436.8250078000019,0.02312339999843971,438.5222223000019,[-0.1125],[0.2625],[1],[0],[0],[1.7093730000015057],['target'],004,2024-10-10_12h19.04.873,visualsearchtask,2024.2.1,61.277964199668325,2024-10-10 12h19.33.421965 +0530,
156,0,156,[-0.09625],[0.09125],[1],[0],[0],[2.1355631000005815],['target'],156,0,156,0,438.5533906000019,,,,,5,438.5351542000026,438.5533906000019,438.5533906000019,0.012772999998560408,440.6710779000023,[-0.09625],[0.09125],[1],[0],[0],[2.1355631000005815],['target'],004,2024-10-10_12h19.04.873,visualsearchtask,2024.2.1,61.277964199668325,2024-10-10 12h19.33.421965 +0530,
157,0,157,[0.22125],[0.23375],[1],[0],[0],[2.023008399999526],['target'],157,0,157,0,440.70884149999983,,,,,10,440.69652580000184,440.70884149999983,440.70884149999983,0.025279400000727037,442.7198782000014,[0.22125],[0.23375],[1],[0],[0],[2.023008399999526],['target'],004,2024-10-10_12h19.04.873,visualsearchtask,2024.2.1,61.277964199668325,2024-10-10 12h19.33.421965 +0530,
158,0,158,[-0.005],[0.45875],[1],[0],[0],[2.767363299997669],['target'],158,0,158,0,442.75154850000035,,,,,5,442.73436920000313,442.75154850000035,442.75154850000035,0.014296000001195353,445.5021055000034,[-0.005],[0.45875],[1],[0],[0],[2.767363299997669],['target'],004,2024-10-10_12h19.04.873,visualsearchtask,2024.2.1,61.277964199668325,2024-10-10 12h19.33.421965 +0530,
159,0,159,[0.185],[-0.20375],[1],[0],[0],[2.6429518000004464],['target'],159,0,159,0,445.53704410000137,,,,,10,445.5247190000009,445.53704410000137,445.53704410000137,0.022487800000817515,448.1680923000022,[0.185],[-0.20375],[1],[0],[0],[2.6429518000004464],['target'],004,2024-10-10_12h19.04.873,visualsearchtask,2024.2.1,61.277964199668325,2024-10-10 12h19.33.421965 +0530,
160,0,160,[0.02375],[0.48],[1],[0],[0],[4.483940400001302],['target'],160,0,160,0,448.1997029000013,,,,,5,448.182196400001,448.1997029000013,448.1997029000013,0.013902400001825299,452.66651940000156,[0.02375],[0.48],[1],[0],[0],[4.483940400001302],['target'],004,2024-10-10_12h19.04.873,visualsearchtask,2024.2.1,61.277964199668325,2024-10-10 12h19.33.421965 +0530,
161,0,161,[-0.4525],[-0.22875],[1],[0],[0],[2.3000258000029135],['target'],161,0,161,0,452.69747910000297,,,,,5,452.68134120000104,452.69747910000297,452.69747910000297,0.014665999999124324,454.98171770000044,[-0.4525],[-0.22875],[1],[0],[0],[2.3000258000029135],['target'],004,2024-10-10_12h19.04.873,visualsearchtask,2024.2.1,61.277964199668325,2024-10-10 12h19.33.421965 +0530,
162,0,162,[0.25625],[-0.0025],[1],[0],[0],[2.236110899997584],['target'],162,0,162,0,455.0139175000004,,,,,5,454.99429640000017,455.0139175000004,455.0139175000004,0.012450800000806339,457.2308383000018,[0.25625],[-0.0025],[1],[0],[0],[2.236110899997584],['target'],004,2024-10-10_12h19.04.873,visualsearchtask,2024.2.1,61.277964199668325,2024-10-10 12h19.33.421965 +0530,
163,0,163,[-0.145],[0.405],[1],[0],[0],[1.753519599998981],['target'],163,0,163,0,457.26299030000155,,,,,5,457.2431770000003,457.26299030000155,457.26299030000155,0.012205200000607874,458.9972379000028,[-0.145],[0.405],[1],[0],[0],[1.753519599998981],['target'],004,2024-10-10_12h19.04.873,visualsearchtask,2024.2.1,61.277964199668325,2024-10-10 12h19.33.421965 +0530,
164,0,164,[0.13],[-0.45125],[1],[0],[0],[2.8230136999991373],['target'],164,0,164,0,459.0349795000002,,,,,10,459.0223337000025,459.0349795000002,459.0349795000002,0.024931699997978285,461.84574890000295,[0.13],[-0.45125],[1],[0],[0],[2.8230136999991373],['target'],004,2024-10-10_12h19.04.873,visualsearchtask,2024.2.1,61.277964199668325,2024-10-10 12h19.33.421965 +0530,
165,0,165,[-0.47625],[-0.4225],[1],[0],[0],[3.9082491000008304],['target'],165,0,165,0,461.88150430000314,,,,,10,461.86861560000034,461.88150430000314,461.88150430000314,0.022707799998897826,465.7772119000001,[-0.47625],[-0.4225],[1],[0],[0],[3.9082491000008304],['target'],004,2024-10-10_12h19.04.873,visualsearchtask,2024.2.1,61.277964199668325,2024-10-10 12h19.33.421965 +0530,
166,0,166,[-0.1475],[0.05],[1],[0],[0],[2.074063700001716],['target'],166,0,166,0,465.81450400000176,,,,,10,465.8022278000026,465.81450400000176,465.81450400000176,0.02481910000278731,467.87664190000214,[-0.1475],[0.05],[1],[0],[0],[2.074063700001716],['target'],004,2024-10-10_12h19.04.873,visualsearchtask,2024.2.1,61.277964199668325,2024-10-10 12h19.33.421965 +0530,
167,0,167,[0.01125],[0.47625],[1],[0],[0],[2.542463300000236],['target'],167,0,167,0,467.9116283000003,,,,,10,467.8991042000016,467.9116283000003,467.9116283000003,0.02231500000198139,470.4419736000018,[0.01125],[0.47625],[1],[0],[0],[2.542463300000236],['target'],004,2024-10-10_12h19.04.873,visualsearchtask,2024.2.1,61.277964199668325,2024-10-10 12h19.33.421965 +0530,
168,0,168,[0.125],[-0.1525],[1],[0],[0],[3.184495599998627],['target'],168,0,168,0,470.47253590000037,,,,,5,470.4561395000019,470.47253590000037,470.47253590000037,0.013956200000393437,473.640992800003,[0.125],[-0.1525],[1],[0],[0],[3.184495599998627],['target'],004,2024-10-10_12h19.04.873,visualsearchtask,2024.2.1,61.277964199668325,2024-10-10 12h19.33.421965 +0530,
169,0,169,[-0.345],[0.465],[1],[0],[0],[4.638569100003224],['target'],169,0,169,0,473.6786448000021,,,,,10,473.6660641000017,473.6786448000021,473.6786448000021,0.02491379999992205,478.3049881000006,[-0.345],[0.465],[1],[0],[0],[4.638569100003224],['target'],004,2024-10-10_12h19.04.873,visualsearchtask,2024.2.1,61.277964199668325,2024-10-10 12h19.33.421965 +0530,
170,0,170,[0.295],[0.225],[1],[0],[0],[2.0867730999998457],['target'],170,0,170,0,478.33654450000176,,,,,5,478.31724880000183,478.33654450000176,478.33654450000176,0.01208740000220132,480.4043870000023,[0.295],[0.225],[1],[0],[0],[2.0867730999998457],['target'],004,2024-10-10_12h19.04.873,visualsearchtask,2024.2.1,61.277964199668325,2024-10-10 12h19.33.421965 +0530,
171,0,171,[0.46625],[0.26125],[1],[0],[0],[1.9504736999988381],['target'],171,0,171,0,480.43524310000066,,,,,5,480.4190153000018,480.43524310000066,480.43524310000066,0.014458499997999752,482.3698557000025,[0.46625],[0.26125],[1],[0],[0],[1.9504736999988381],['target'],004,2024-10-10_12h19.04.873,visualsearchtask,2024.2.1,61.277964199668325,2024-10-10 12h19.33.421965 +0530,
172,0,172,[-0.105],[0.3175],[1],[0],[0],[2.4058390999998664],['target'],172,0,172,0,482.4089931000017,,,,,10,482.3964063000021,482.4089931000017,482.4089931000017,0.026393199997983174,484.8027144000007,[-0.105],[0.3175],[1],[0],[0],[2.4058390999998664],['target'],004,2024-10-10_12h19.04.873,visualsearchtask,2024.2.1,61.277964199668325,2024-10-10 12h19.33.421965 +0530,
173,0,173,[-0.47375],[-0.4625],[1],[0],[0],[3.0801801000015985],['target'],173,0,173,0,484.83470280000256,,,,,5,484.82050470000104,484.83470280000256,484.83470280000256,0.017534599999635248,487.90108800000235,[-0.47375],[-0.4625],[1],[0],[0],[3.0801801000015985],['target'],004,2024-10-10_12h19.04.873,visualsearchtask,2024.2.1,61.277964199668325,2024-10-10 12h19.33.421965 +0530,
174,0,174,[0.25875],[0.38625],[1],[0],[0],[2.2364787999977125],['target'],174,0,174,0,487.93184290000136,,,,,5,487.91303880000123,487.93184290000136,487.93184290000136,0.011820299998362316,490.1498774000029,[0.25875],[0.38625],[1],[0],[0],[2.2364787999977125],['target'],004,2024-10-10_12h19.04.873,visualsearchtask,2024.2.1,61.277964199668325,2024-10-10 12h19.33.421965 +0530,
175,0,175,[-0.43875],[-0.42625],[1],[0],[0],[2.9522018999996362],['target'],175,0,175,0,490.18154030000005,,,,,5,490.162261700003,490.18154030000005,490.18154030000005,0.012228600000526058,493.11485780000294,[-0.43875],[-0.42625],[1],[0],[0],[2.9522018999996362],['target'],004,2024-10-10_12h19.04.873,visualsearchtask,2024.2.1,61.277964199668325,2024-10-10 12h19.33.421965 +0530,
176,0,176,[-0.33],[0.4775],[1],[0],[0],[4.435769699997763],['target'],176,0,176,0,493.1461088000033,,,,,5,493.1274052000008,493.1461088000033,493.1461088000033,0.012417499998264248,497.56352600000173,[-0.33],[0.4775],[1],[0],[0],[4.435769699997763],['target'],004,2024-10-10_12h19.04.873,visualsearchtask,2024.2.1,61.277964199668325,2024-10-10 12h19.33.421965 +0530,
177,0,177,[0.05625],[0.45125],[1],[0],[0],[2.1899365999997826],['target'],177,0,177,0,497.60069870000007,,,,,10,497.5881900000022,497.60069870000007,497.60069870000007,0.024536699998861877,499.7784838000007,[0.05625],[0.45125],[1],[0],[0],[2.1899365999997826],['target'],004,2024-10-10_12h19.04.873,visualsearchtask,2024.2.1,61.277964199668325,2024-10-10 12h19.33.421965 +0530,
178,0,178,[-0.345],[-0.40375],[1],[0],[0],[3.3758854000006977],['target'],178,0,178,0,499.81385440000304,,,,,10,499.801758900001,499.81385440000304,499.81385440000304,0.02312560000063968,503.17805560000124,[-0.345],[-0.40375],[1],[0],[0],[3.3758854000006977],['target'],004,2024-10-10_12h19.04.873,visualsearchtask,2024.2.1,61.277964199668325,2024-10-10 12h19.33.421965 +0530,
179,0,179,[0.33875],[-0.1375],[1],[0],[0],[6.285219099998358],['target'],179,0,179,0,503.2093503000033,,,,,5,503.1899308000029,503.2093503000033,503.2093503000033,0.011712499999703141,509.4754490000014,[0.33875],[-0.1375],[1],[0],[0],[6.285219099998358],['target'],004,2024-10-10_12h19.04.873,visualsearchtask,2024.2.1,61.277964199668325,2024-10-10 12h19.33.421965 +0530,
180,0,180,[-0.28125],[0.13625],[1],[0],[0],[1.9871606000015163],['target'],180,0,180,0,509.506619900003,,,,,5,509.48739990000104,509.506619900003,509.506619900003,0.011831899999378948,511.47494910000023,[-0.28125],[0.13625],[1],[0],[0],[1.9871606000015163],['target'],004,2024-10-10_12h19.04.873,visualsearchtask,2024.2.1,61.277964199668325,2024-10-10 12h19.33.421965 +0530,
181,0,181,[-0.03875],[-0.03375],[1],[0],[0],[2.5224321999994572],['target'],181,0,181,0,511.5123741000025,,,,,10,511.4998572000004,511.5123741000025,511.5123741000025,0.024779300001682714,514.0226514000024,[-0.03875],[-0.03375],[1],[0],[0],[2.5224321999994572],['target'],004,2024-10-10_12h19.04.873,visualsearchtask,2024.2.1,61.277964199668325,2024-10-10 12h19.33.421965 +0530,
182,0,182,[0.20875],[0.4875],[1],[0],[0],[5.8683719000000565],['target'],182,0,182,0,514.0539409000012,,,,,5,514.0354607000008,514.0539409000012,514.0539409000012,0.012603499999386258,519.9041673000029,[0.20875],[0.4875],[1],[0],[0],[5.8683719000000565],['target'],004,2024-10-10_12h19.04.873,visualsearchtask,2024.2.1,61.277964199668325,2024-10-10 12h19.33.421965 +0530,
183,0,183,[0.3075],[0.33],[1],[0],[0],[2.1914982000016607],['target'],183,0,183,0,519.9392039000013,,,,,10,519.9274459000007,519.9392039000013,519.9392039000013,0.02314910000131931,522.1193187000026,[0.3075],[0.33],[1],[0],[0],[2.1914982000016607],['target'],004,2024-10-10_12h19.04.873,visualsearchtask,2024.2.1,61.277964199668325,2024-10-10 12h19.33.421965 +0530,
184,0,184,[0.40875],[-0.32125],[1],[0],[0],[3.041696899999806],['target'],184,0,184,0,522.1545122000025,,,,,10,522.1426445000034,522.1545122000025,522.1545122000025,0.023232999999891035,525.1846970000006,[0.40875],[-0.32125],[1],[0],[0],[3.041696899999806],['target'],004,2024-10-10_12h19.04.873,visualsearchtask,2024.2.1,61.277964199668325,2024-10-10 12h19.33.421965 +0530,
185,0,185,[0.0975],[0.11375],[1],[0],[0],[2.223018000000593],['target'],185,0,185,0,525.2222671000018,,,,,10,525.2105517000018,525.2222671000018,525.2222671000018,0.02566590000060387,527.4339280000022,[0.0975],[0.11375],[1],[0],[0],[2.223018000000593],['target'],004,2024-10-10_12h19.04.873,visualsearchtask,2024.2.1,61.277964199668325,2024-10-10 12h19.33.421965 +0530,
186,0,186,[0.19375],[-0.06],[1],[0],[0],[2.601936700000806],['target'],186,0,186,0,527.4656089000018,,,,,5,527.4477080000033,527.4656089000018,527.4656089000018,0.013585900000180118,530.0500947,[0.19375],[-0.06],[1],[0],[0],[2.601936700000806],['target'],004,2024-10-10_12h19.04.873,visualsearchtask,2024.2.1,61.277964199668325,2024-10-10 12h19.33.421965 +0530,
187,0,187,[-0.43875],[-0.145],[1],[0],[0],[2.5362840999987384],['target'],187,0,187,0,530.0803089000001,,,,,5,530.0618341000009,530.0803089000001,530.0803089000001,0.011607099997490877,532.5984994000028,[-0.43875],[-0.145],[1],[0],[0],[2.5362840999987384],['target'],004,2024-10-10_12h19.04.873,visualsearchtask,2024.2.1,61.277964199668325,2024-10-10 12h19.33.421965 +0530,
188,0,188,[0.10625],[0.13125],[1],[0],[0],[2.6555383000013535],['target'],188,0,188,0,532.6366355000027,,,,,10,532.6246910000009,532.6366355000027,532.6366355000027,0.0260283999996318,535.2805520000002,[0.10625],[0.13125],[1],[0],[0],[2.6555383000013535],['target'],004,2024-10-10_12h19.04.873,visualsearchtask,2024.2.1,61.277964199668325,2024-10-10 12h19.33.421965 +0530,
189,0,189,[0.4925],[0.29125],[1],[0],[0],[2.8863304000005883],['target'],189,0,189,0,535.3121694000001,,,,,5,535.2929636000008,535.3121694000001,535.3121694000001,0.012265699999261415,538.179664000003,[0.4925],[0.29125],[1],[0],[0],[2.8863304000005883],['target'],004,2024-10-10_12h19.04.873,visualsearchtask,2024.2.1,61.277964199668325,2024-10-10 12h19.33.421965 +0530,
190,0,190,[-0.2275],[-0.1875],[1],[0],[0],[2.0583474000013666],[None],190,0,190,0,538.2152786000006,,,,,10,538.2027119000013,538.2152786000006,538.2152786000006,0.022920599996723467,540.2614157000025,[-0.2275],[-0.1875],[1],[0],[0],[2.0583474000013666],[None],004,2024-10-10_12h19.04.873,visualsearchtask,2024.2.1,61.277964199668325,2024-10-10 12h19.33.421965 +0530,
191,0,191,[0.00875],[-0.37],[1],[0],[0],[2.568312199997308],['target'],191,0,191,0,540.2932426000007,,,,,5,540.2756161000034,540.2932426000007,540.2932426000007,0.01402089999828604,542.8443450000013,[0.00875],[-0.37],[1],[0],[0],[2.568312199997308],['target'],004,2024-10-10_12h19.04.873,visualsearchtask,2024.2.1,61.277964199668325,2024-10-10 12h19.33.421965 +0530,
192,0,192,[-0.3675],[0.14625],[1],[0],[0],[7.822990699998627],['target'],192,0,192,0,542.8788080000013,,,,,10,542.8669071000004,542.8788080000013,542.8788080000013,0.022402999999030726,550.6902659000007,[-0.3675],[0.14625],[1],[0],[0],[7.822990699998627],['target'],004,2024-10-10_12h19.04.873,visualsearchtask,2024.2.1,61.277964199668325,2024-10-10 12h19.33.421965 +0530,
193,0,193,[-0.1125],[-0.42375],[1],[0],[0],[2.858306000001903],['target'],193,0,193,0,550.7268733000019,,,,,10,550.7142089000008,550.7268733000019,550.7268733000019,0.02376659999936237,553.5729334000025,[-0.1125],[-0.42375],[1],[0],[0],[2.858306000001903],['target'],004,2024-10-10_12h19.04.873,visualsearchtask,2024.2.1,61.277964199668325,2024-10-10 12h19.33.421965 +0530,
194,0,194,[0.38125],[-0.2725],[1],[0],[0],[2.453045700000075],['target'],194,0,194,0,553.6038558,,,,,5,553.5849346000032,553.6038558,553.6038558,0.011774499998864485,556.0384036000032,[0.38125],[-0.2725],[1],[0],[0],[2.453045700000075],['target'],004,2024-10-10_12h19.04.873,visualsearchtask,2024.2.1,61.277964199668325,2024-10-10 12h19.33.421965 +0530,
195,0,195,[-0.22875],[-0.1975],[1],[0],[0],[2.3418657000001986],['target'],195,0,195,0,556.0730956000007,,,,,10,556.0614602000023,556.0730956000007,556.0730956000007,0.022925199999008328,558.4036711000008,[-0.22875],[-0.1975],[1],[0],[0],[2.3418657000001986],['target'],004,2024-10-10_12h19.04.873,visualsearchtask,2024.2.1,61.277964199668325,2024-10-10 12h19.33.421965 +0530,
196,0,196,[-0.34375],[0.32375],[1],[0],[0],[3.149729799999477],['target'],196,0,196,0,558.4348865000029,,,,,5,558.4189495999999,558.4348865000029,558.4348865000029,0.015092000001459382,561.5690986000009,[-0.34375],[0.32375],[1],[0],[0],[3.149729799999477],['target'],004,2024-10-10_12h19.04.873,visualsearchtask,2024.2.1,61.277964199668325,2024-10-10 12h19.33.421965 +0530,
197,0,197,[-0.05875],[-0.2525],[1],[0],[0],[2.0532917000018642],['target'],197,0,197,0,561.6009662000033,,,,,5,561.5809501000003,561.6009662000033,561.6009662000033,0.011668499999359483,563.6345830000027,[-0.05875],[-0.2525],[1],[0],[0],[2.0532917000018642],['target'],004,2024-10-10_12h19.04.873,visualsearchtask,2024.2.1,61.277964199668325,2024-10-10 12h19.33.421965 +0530,
198,0,198,[-0.13375],[-0.12],[1],[0],[0],[2.0245916999992914],['target'],198,0,198,0,563.6713328000005,,,,,10,563.6597144000007,563.6713328000005,563.6713328000005,0.024968199999420904,565.6847256000001,[-0.13375],[-0.12],[1],[0],[0],[2.0245916999992914],['target'],004,2024-10-10_12h19.04.873,visualsearchtask,2024.2.1,61.277964199668325,2024-10-10 12h19.33.421965 +0530,
199,0,199,[-0.04875],[0.45375],[1],[0],[0],[3.9572274000020116],['target'],199,0,199,0,565.720005500003,,,,,10,565.7078690000017,565.720005500003,565.720005500003,0.022976099997322308,569.6654505000006,[-0.04875],[0.45375],[1],[0],[0],[3.9572274000020116],['target'],004,2024-10-10_12h19.04.873,visualsearchtask,2024.2.1,61.277964199668325,2024-10-10 12h19.33.421965 +0530,
