word,category,thisN,thisTrialN,thisRepN,textbox.text,button_2.numClicks,button_2.timesOn,button_2.timesOff,trials.thisRepN,trials.thisTrialN,trials.thisN,trials.thisIndex,thisRow.t,notes,phase1.started,instruction1.started,key_resp_2.started,phase1.stopped,key_resp_2.keys,key_resp_2.rt,key_resp_2.duration,semantic_processing.started,fixation.started,textbox.started,button_2.started,fixation.stopped,semantic_processing.stopped,trials.textbox.text,trials.button_2.numClicks,trials.button_2.timesOn,trials.button_2.timesOff,phase2.started,instruction2.started,key_resp.started,phase2.stopped,key_resp.keys,key_resp.rt,key_resp.duration,recalltest.started,textbox_2.started,button.started,recalltest.stopped,textbox_2.text,button.numClicks,button.timesOn,button.timesOff,thankyou.started,thankyoutext.started,thankyou.stopped,participant,age,school,sex,condition,date,expName,psychopyVersion,frameRate,expStart,
,,,,,,,,,,,,,,,0.004948299989337102,0.021914000011747703,0.021914000011747703,0.9758012999955099,space,0.9345128999848384,None,,,,,,,,,,,,,,,,,,,,,,,,,,,,,264827,20,,,,2024-11-25_06h50.56.602,labsoloproject,2024.2.1,59.91672773246677,2024-11-25 06h51.18.278809 +0530,
frying,verb,0,0,0, verb,1,[3.0347592000034638],[3.034768499986967],0,0,0,15,1.0041704000032041,,,,,,,,,0.9894109000160825,1.0041704000032041,1.9866650000039954,1.9866650000039954,2.00346159999026,5.0220367000147235, verb,1,[3.0347592000034638],[3.034768499986967],,,,,,,,,,,,,,,,,,,264827,20,,,,2024-11-25_06h50.56.602,labsoloproject,2024.2.1,59.91672773246677,2024-11-25 06h51.18.278809 +0530,
fruit basket,noun,1,1,0,noun,1,[2.6320830000040587],[2.632093199994415],0,1,1,11,5.037335600005463,,,,,,,,,5.026158900000155,5.037335600005463,6.037581100012176,6.037581100012176,6.037581100012176,8.670263100008015,noun,1,[2.6320830000040587],[2.632093199994415],,,,,,,,,,,,,,,,,,,264827,20,,,,2024-11-25_06h50.56.602,labsoloproject,2024.2.1,59.91672773246677,2024-11-25 06h51.18.278809 +0530,
baking,verb,2,2,0,verb,1,[1.8830854000116233],[1.8830943999928422],0,2,2,16,8.68615610001143,,,,,,,,,8.67297429998871,8.68615610001143,9.685670700011542,9.685670700011542,9.685670700011542,11.569465800013859,verb,1,[1.8830854000116233],[1.8830943999928422],,,,,,,,,,,,,,,,,,,264827,20,,,,2024-11-25_06h50.56.602,labsoloproject,2024.2.1,59.91672773246677,2024-11-25 06h51.18.278809 +0530,
whisking,verb,3,3,0,verb,1,[1.9498246999864932],[1.9498344000021461],0,3,3,18,11.584857300011208,,,,,,,,,11.572808299999451,11.584857300011208,12.58425770001486,12.58425770001486,12.58425770001486,14.53461669999524,verb,1,[1.9498246999864932],[1.9498344000021461],,,,,,,,,,,,,,,,,,,264827,20,,,,2024-11-25_06h50.56.602,labsoloproject,2024.2.1,59.91672773246677,2024-11-25 06h51.18.278809 +0530,
jar,noun,4,4,0,noun,1,[2.116293700004462],[2.1163026000140235],0,4,4,4,14.550024299998768,,,,,,,,,14.538425900012953,14.550024299998768,15.54962780000642,15.54962780000642,15.54962780000642,17.666577299998607,noun,1,[2.116293700004462],[2.1163026000140235],,,,,,,,,,,,,,,,,,,264827,20,,,,2024-11-25_06h50.56.602,labsoloproject,2024.2.1,59.91672773246677,2024-11-25 06h51.18.278809 +0530,
chopping,verb,5,5,0,verb,1,[2.066334700008156],[2.0663472000160255],0,5,5,12,17.682026399997994,,,,,,,,,17.668891200009966,17.682026399997994,18.681916100002127,18.681916100002127,18.681916100002127,20.749045700009447,verb,1,[2.066334700008156],[2.0663472000160255],,,,,,,,,,,,,,,,,,,264827,20,,,,2024-11-25_06h50.56.602,labsoloproject,2024.2.1,59.91672773246677,2024-11-25 06h51.18.278809 +0530,
garbage bin,noun,6,6,0,noun,1,[2.3993000999907963],[2.3993105000117794],0,6,6,7,20.763934199989308,,,,,,,,,20.75301529999706,20.763934199989308,21.763943600002676,21.763943600002676,21.763943600002676,24.163965699990513,noun,1,[2.3993000999907963],[2.3993105000117794],,,,,,,,,,,,,,,,,,,264827,20,,,,2024-11-25_06h50.56.602,labsoloproject,2024.2.1,59.91672773246677,2024-11-25 06h51.18.278809 +0530,
microwave,noun,7,7,0,noun,1,[2.482711199991172],[2.482719799998449],0,7,7,2,24.179246000014246,,,,,,,,,24.168096700013848,24.179246000014246,25.179078699991805,25.179078699991805,25.179078699991805,27.662415800004965,noun,1,[2.482711199991172],[2.482719799998449],,,,,,,,,,,,,,,,,,,264827,20,,,,2024-11-25_06h50.56.602,labsoloproject,2024.2.1,59.91672773246677,2024-11-25 06h51.18.278809 +0530,
knife,noun,8,8,0,noun,1,[2.2326766999904066],[2.2326864000060596],0,8,8,5,27.67756810001447,,,,,,,,,27.664749999996275,27.67756810001447,28.67785800001002,28.67785800001002,28.67785800001002,30.911134399997536,noun,1,[2.2326766999904066],[2.2326864000060596],,,,,,,,,,,,,,,,,,,264827,20,,,,2024-11-25_06h50.56.602,labsoloproject,2024.2.1,59.91672773246677,2024-11-25 06h51.18.278809 +0530,
peeling,verb,9,9,0,verb,1,[1.9489852000260726],[1.9489953000156675],0,9,9,19,30.9260510999884,,,,,,,,,30.913533000013558,30.9260510999884,31.926611100003356,31.926611100003356,31.926611100003356,33.87620319999405,verb,1,[1.9489852000260726],[1.9489953000156675],,,,,,,,,,,,,,,,,,,264827,20,,,,2024-11-25_06h50.56.602,labsoloproject,2024.2.1,59.91672773246677,2024-11-25 06h51.18.278809 +0530,
dish soap,noun,10,10,0,noun,1,[2.2493963000015356],[2.2494043999759015],0,10,10,9,33.891574100009166,,,,,,,,,33.879938400001265,33.891574100009166,34.89118010000675,34.89118010000675,34.89118010000675,37.141268600011244,noun,1,[2.2493963000015356],[2.2494043999759015],,,,,,,,,,,,,,,,,,,264827,20,,,,2024-11-25_06h50.56.602,labsoloproject,2024.2.1,59.91672773246677,2024-11-25 06h51.18.278809 +0530,
stove,noun,11,11,0,noun,1,[2.2320792000100482],[2.2320865000074264],0,11,11,0,37.15681620000396,,,,,,,,,37.14380240000901,37.15681620000396,38.15693610001472,38.15693610001472,38.15693610001472,40.389708500006236,noun,1,[2.2320792000100482],[2.2320865000074264],,,,,,,,,,,,,,,,,,,264827,20,,,,2024-11-25_06h50.56.602,labsoloproject,2024.2.1,59.91672773246677,2024-11-25 06h51.18.278809 +0530,
cooker,noun,12,12,0,noun,1,[2.1157743000076152],[2.115783299988834],0,12,12,3,40.4056438000116,,,,,,,,,40.392593399999896,40.4056438000116,41.40551899999264,41.40551899999264,41.40551899999264,43.52204770001117,noun,1,[2.1157743000076152],[2.115783299988834],,,,,,,,,,,,,,,,,,,264827,20,,,,2024-11-25_06h50.56.602,labsoloproject,2024.2.1,59.91672773246677,2024-11-25 06h51.18.278809 +0530,
grating,verb,13,13,0,verb,1,[2.115745399991283],[2.1157606999913696],0,13,13,20,43.53743039999972,,,,,,,,,43.52443580000545,43.53743039999972,44.53728859999683,44.53728859999683,44.53728859999683,46.65383620001376,verb,1,[2.115745399991283],[2.1157606999913696],,,,,,,,,,,,,,,,,,,264827,20,,,,2024-11-25_06h50.56.602,labsoloproject,2024.2.1,59.91672773246677,2024-11-25 06h51.18.278809 +0530,
refrigerator,noun,14,14,0,noun,1,[2.1840637999994215],[2.184071900002891],0,14,14,1,46.66941649999353,,,,,,,,,46.65663620000123,46.66941649999353,47.66910490000737,47.66910490000737,47.66910490000737,49.85381440000492,noun,1,[2.1840637999994215],[2.184071900002891],,,,,,,,,,,,,,,,,,,264827,20,,,,2024-11-25_06h50.56.602,labsoloproject,2024.2.1,59.91672773246677,2024-11-25 06h51.18.278809 +0530,
rolling pin,noun,15,15,0,noun,1,[2.215814399998635],[2.215822999976808],0,15,15,6,49.868080399988685,,,,,,,,,49.856541799992556,49.868080399988685,50.867792700009886,50.867792700009886,50.867792700009886,53.08434309999575,noun,1,[2.215814399998635],[2.215822999976808],,,,,,,,,,,,,,,,,,,264827,20,,,,2024-11-25_06h50.56.602,labsoloproject,2024.2.1,59.91672773246677,2024-11-25 06h51.18.278809 +0530,
ice tray,noun,16,16,0,noun,1,[2.049703700002283],[2.0497165999840945],0,16,16,10,53.09982709999895,,,,,,,,,53.08691800001543,53.09982709999895,54.09976060001645,54.09976060001645,54.09976060001645,56.150125699990895,noun,1,[2.049703700002283],[2.0497165999840945],,,,,,,,,,,,,,,,,,,264827,20,,,,2024-11-25_06h50.56.602,labsoloproject,2024.2.1,59.91672773246677,2024-11-25 06h51.18.278809 +0530,
grinding,verb,17,17,0,verb,1,[2.083097499998985],[2.0831050999986473],0,17,17,23,56.16519289999269,,,,,,,,,56.15298750001239,56.16519289999269,57.164958900015336,57.164958900015336,57.164958900015336,59.248733799991896,verb,1,[2.083097499998985],[2.0831050999986473],,,,,,,,,,,,,,,,,,,264827,20,,,,2024-11-25_06h50.56.602,labsoloproject,2024.2.1,59.91672773246677,2024-11-25 06h51.18.278809 +0530,
boiling,verb,18,18,0,verb,1,[2.01550639999914],[2.015514400001848],0,18,18,14,59.264076999999816,,,,,,,,,59.25173839999479,59.264076999999816,60.2641707000148,60.2641707000148,60.2641707000148,62.28050270001404,verb,1,[2.01550639999914],[2.015514400001848],,,,,,,,,,,,,,,,,,,264827,20,,,,2024-11-25_06h50.56.602,labsoloproject,2024.2.1,59.91672773246677,2024-11-25 06h51.18.278809 +0530,
grilling,verb,19,19,0,verb,1,[1.9668284000072163],[1.9668385999975726],0,19,19,17,62.29654949999531,,,,,,,,,62.28293950000079,62.29654949999531,63.29552039998816,63.29552039998816,63.29552039998816,65.26307029998861,verb,1,[1.9668284000072163],[1.9668385999975726],,,,,,,,,,,,,,,,,,,264827,20,,,,2024-11-25_06h50.56.602,labsoloproject,2024.2.1,59.91672773246677,2024-11-25 06h51.18.278809 +0530,
blending,verb,20,20,0,verb,1,[2.0492671000247356],[2.0492743000213522],0,20,20,13,65.27813640001114,,,,,,,,,65.2656713000033,65.27813640001114,66.27764949999982,66.27764949999982,66.27764949999982,68.32767329999479,verb,1,[2.0492671000247356],[2.0492743000213522],,,,,,,,,,,,,,,,,,,264827,20,,,,2024-11-25_06h50.56.602,labsoloproject,2024.2.1,59.91672773246677,2024-11-25 06h51.18.278809 +0530,
garnishing,verb,21,21,0,verb,1,[2.316270599985728],[2.316280500002904],0,21,21,21,68.34352080000099,,,,,,,,,68.33044479999808,68.34352080000099,69.34309860001667,69.34309860001667,69.34309860001667,71.65998769999715,verb,1,[2.316270599985728],[2.316280500002904],,,,,,,,,,,,,,,,,,,264827,20,,,,2024-11-25_06h50.56.602,labsoloproject,2024.2.1,59.91672773246677,2024-11-25 06h51.18.278809 +0530,
mashing,verb,22,22,0,verb,1,[2.3325309000210837],[2.332538500020746],0,22,22,22,71.67529730001115,,,,,,,,,71.66256269998848,71.67529730001115,72.675164699991,72.675164699991,72.675164699991,75.00828360000742,verb,1,[2.3325309000210837],[2.332538500020746],,,,,,,,,,,,,,,,,,,264827,20,,,,2024-11-25_06h50.56.602,labsoloproject,2024.2.1,59.91672773246677,2024-11-25 06h51.18.278809 +0530,
bottle opener,noun,23,23,0,noun,1,[2.6158602999930736],[2.615870099980384],0,23,23,8,75.02382050000597,,,,,,,,,75.0110263999959,75.02382050000597,76.02372269998887,76.02372269998887,76.02372269998887,78.6402483000129,noun,1,[2.6158602999930736],[2.615870099980384],,,,,,,,,,,,,,,,,,,264827,20,,,,2024-11-25_06h50.56.602,labsoloproject,2024.2.1,59.91672773246677,2024-11-25 06h51.18.278809 +0530,
,,,,,,,,,,,,,,,,,,,,,,,,,,,,,,,,78.64049700001488,78.6559583999915,78.6559583999915,84.93745649998891,space,6.279230100015411,None,,,,,,,,,,,,264827,20,,,,2024-11-25_06h50.56.602,labsoloproject,2024.2.1,59.91672773246677,2024-11-25 06h51.18.278809 +0530,
,,,,,,,,,,,,,,,,,,,,,,,,,,,,,,,,,,,,,,,84.93901649999316,84.95279549999395,84.95279549999395,174.94793900000514," refrigerator, jar, garbage bin, rolling pin, knife, microwave, stove, cooker, boiling, peeling",0,,,,,,264827,20,,,,2024-11-25_06h50.56.602,labsoloproject,2024.2.1,59.91672773246677,2024-11-25 06h51.18.278809 +0530,
,,,,,,,,,,,,,,,,,,,,,,,,,,,,,,,,,,,,,,,,,,,,,,,174.94802710000658,174.96457509999163,177.94597470000735,264827,20,,,,2024-11-25_06h50.56.602,labsoloproject,2024.2.1,59.91672773246677,2024-11-25 06h51.18.278809 +0530,
