word,category,thisN,thisTrialN,thisRepN,textbox.text,button_2.numClicks,button_2.timesOn,button_2.timesOff,trials.thisRepN,trials.thisTrialN,trials.thisN,trials.thisIndex,thisRow.t,notes,phase1.started,instruction1.started,key_resp_2.started,phase1.stopped,key_resp_2.keys,key_resp_2.rt,key_resp_2.duration,semantic_processing.started,fixation.started,textbox.started,button_2.started,fixation.stopped,semantic_processing.stopped,trials.textbox.text,trials.button_2.numClicks,trials.button_2.timesOn,trials.button_2.timesOff,phase2.started,instruction2.started,key_resp.started,phase2.stopped,key_resp.keys,key_resp.rt,key_resp.duration,recalltest.started,textbox_2.started,button.started,recalltest.stopped,textbox_2.text,button.numClicks,button.timesOn,button.timesOff,thankyou.started,thankyoutext.started,thankyou.stopped,participant,age,school,sex,condition,date,expName,psychopyVersion,frameRate,expStart,
,,,,,,,,,,,,,,,0.01615400001173839,0.03122200001962483,0.03122200001962483,0.836330900026951,space,0.7957783000019845,None,,,,,,,,,,,,,,,,,,,,,,,,,,,,,558536,20,,,,2024-11-25_07h06.42.516,labsoloproject,2024.2.1,60.41489323911668,2024-11-25 07h06.58.107172 +0530,
blending,verb,0,0,0, verb,1,[2.150307800009614],[2.1503169999923557],0,0,0,13,0.8656263000157196,,,,,,,,,0.8480673000158276,0.8656263000157196,1.8466771000239532,1.8466771000239532,1.8802352000202518,3.9976373000245076, verb,1,[2.150307800009614],[2.1503169999923557],,,,,,,,,,,,,,,,,,,558536,20,,,,2024-11-25_07h06.42.516,labsoloproject,2024.2.1,60.41489323911668,2024-11-25 07h06.58.107172 +0530,
jar,noun,1,1,0,noun,1,[2.865923000004841],[2.8659321000159252],0,1,1,4,4.012698500009719,,,,,,,,,4.0012935000122525,4.012698500009719,5.01221070002066,5.01221070002066,5.01221070002066,7.878850000008242,noun,1,[2.865923000004841],[2.8659321000159252],,,,,,,,,,,,,,,,,,,558536,20,,,,2024-11-25_07h06.42.516,labsoloproject,2024.2.1,60.41489323911668,2024-11-25 07h06.58.107172 +0530,
grinding,verb,2,2,0,verb,1,[1.7985058999911416],[1.7985143999976572],0,2,2,23,7.8944526000123005,,,,,,,,,7.881315600010566,7.8944526000123005,8.89492180000525,8.89492180000525,8.89492180000525,10.694137900019996,verb,1,[1.7985058999911416],[1.7985143999976572],,,,,,,,,,,,,,,,,,,558536,20,,,,2024-11-25_07h06.42.516,labsoloproject,2024.2.1,60.41489323911668,2024-11-25 07h06.58.107172 +0530,
rolling pin,noun,3,3,0,noun,1,[2.315472199989017],[2.315484099992318],0,3,3,6,10.709878699999535,,,,,,,,,10.696980400010943,10.709878699999535,11.709928000025684,11.709928000025684,11.709928000025684,14.026144600007683,noun,1,[2.315472199989017],[2.315484099992318],,,,,,,,,,,,,,,,,,,558536,20,,,,2024-11-25_07h06.42.516,labsoloproject,2024.2.1,60.41489323911668,2024-11-25 07h06.58.107172 +0530,
fruit basket,noun,4,4,0,noun,1,[2.282602899998892],[2.2826118000084534],0,4,4,11,14.041564800019842,,,,,,,,,14.029118000005838,14.041564800019842,15.041188600007445,15.041188600007445,15.041188600007445,17.32455810002284,noun,1,[2.282602899998892],[2.2826118000084534],,,,,,,,,,,,,,,,,,,558536,20,,,,2024-11-25_07h06.42.516,labsoloproject,2024.2.1,60.41489323911668,2024-11-25 07h06.58.107172 +0530,
knife,noun,5,5,0,noun,1,[3.5981204999843612],[3.598127499979455],0,5,5,5,17.341157900023973,,,,,,,,,17.327333799999906,17.341157900023973,18.340396400017198,18.340396400017198,18.356810600002063,21.939188800024567,noun,1,[3.5981204999843612],[3.598127499979455],,,,,,,,,,,,,,,,,,,558536,20,,,,2024-11-25_07h06.42.516,labsoloproject,2024.2.1,60.41489323911668,2024-11-25 07h06.58.107172 +0530,
baking,verb,6,6,0,verb,1,[5.131775999994716],[5.131783599994378],0,6,6,16,21.95499640001799,,,,,,,,,21.941826800000854,21.95499640001799,22.954644800018286,22.954644800018286,22.954644800018286,28.087074600014603,verb,1,[5.131775999994716],[5.131783599994378],,,,,,,,,,,,,,,,,,,558536,20,,,,2024-11-25_07h06.42.516,labsoloproject,2024.2.1,60.41489323911668,2024-11-25 07h06.58.107172 +0530,
cooker,noun,7,7,0,noun,1,[2.432316099992022],[2.4323248000000603],0,7,7,3,28.102322400023695,,,,,,,,,28.089837400009856,28.102322400023695,29.1021850000252,29.1021850000252,29.1021850000252,31.53519370002323,noun,1,[2.432316099992022],[2.4323248000000603],,,,,,,,,,,,,,,,,,,558536,20,,,,2024-11-25_07h06.42.516,labsoloproject,2024.2.1,60.41489323911668,2024-11-25 07h06.58.107172 +0530,
microwave,noun,8,8,0,noun,1,[2.332525200006785],[2.3325339000148233],0,8,8,2,31.551043100014795,,,,,,,,,31.53800090000732,31.551043100014795,32.53396890001022,32.53396890001022,32.55083160000504,34.86728060001042,noun,1,[2.332525200006785],[2.3325339000148233],,,,,,,,,,,,,,,,,,,558536,20,,,,2024-11-25_07h06.42.516,labsoloproject,2024.2.1,60.41489323911668,2024-11-25 07h06.58.107172 +0530,
grating,verb,9,9,0,verb,1,[2.416812099982053],[2.4168268000066746],0,9,9,20,34.88368400000036,,,,,,,,,34.869920700002695,34.88368400000036,35.88224840001203,35.88224840001203,35.89961780002341,38.299846200010506,verb,1,[2.416812099982053],[2.4168268000066746],,,,,,,,,,,,,,,,,,,558536,20,,,,2024-11-25_07h06.42.516,labsoloproject,2024.2.1,60.41489323911668,2024-11-25 07h06.58.107172 +0530,
stove,noun,10,10,0,noun,1,[2.1659164000011515],[2.1659236999985296],0,10,10,0,38.31487550001475,,,,,,,,,38.30272390000755,38.31487550001475,39.31418190000113,39.31418190000113,39.330926200025715,41.48085490000085,noun,1,[2.1659164000011515],[2.1659236999985296],,,,,,,,,,,,,,,,,,,558536,20,,,,2024-11-25_07h06.42.516,labsoloproject,2024.2.1,60.41489323911668,2024-11-25 07h06.58.107172 +0530,
bottle opener,noun,11,11,0,noun,1,[2.2825013999827206],[2.2825105999945663],0,11,11,8,41.49729389999993,,,,,,,,,41.48367000001599,41.49729389999993,42.49632190002012,42.49632190002012,42.49632190002012,44.77960070001427,noun,1,[2.2825013999827206],[2.2825105999945663],,,,,,,,,,,,,,,,,,,558536,20,,,,2024-11-25_07h06.42.516,labsoloproject,2024.2.1,60.41489323911668,2024-11-25 07h06.58.107172 +0530,
boiling,verb,12,12,0,verb,1,[5.11389369997778],[5.113902799988864],0,12,12,14,44.795263800013345,,,,,,,,,44.78201250001439,44.795263800013345,45.79541270001209,45.79541270001209,45.79541270001209,50.910107700008666,verb,1,[5.11389369997778],[5.113902799988864],,,,,,,,,,,,,,,,,,,558536,20,,,,2024-11-25_07h06.42.516,labsoloproject,2024.2.1,60.41489323911668,2024-11-25 07h06.58.107172 +0530,
ice tray,noun,13,13,0,noun,1,[2.0657606000022497],[2.065771199995652],0,13,13,10,50.9260987000016,,,,,,,,,50.91270020001684,50.9260987000016,51.925766000000294,51.925766000000294,51.925766000000294,53.99235650000628,noun,1,[2.0657606000022497],[2.065771199995652],,,,,,,,,,,,,,,,,,,558536,20,,,,2024-11-25_07h06.42.516,labsoloproject,2024.2.1,60.41489323911668,2024-11-25 07h06.58.107172 +0530,
refrigerator,noun,14,14,0,noun,1,[2.1326683000079356],[2.13267740001902],0,14,14,1,54.00754910000251,,,,,,,,,53.99503610000829,54.00754910000251,55.0072696999996,55.0072696999996,55.0072696999996,57.14074280002387,noun,1,[2.1326683000079356],[2.13267740001902],,,,,,,,,,,,,,,,,,,558536,20,,,,2024-11-25_07h06.42.516,labsoloproject,2024.2.1,60.41489323911668,2024-11-25 07h06.58.107172 +0530,
frying,verb,15,15,0,verb,1,[2.415464699995937],[2.415473100001691],0,15,15,15,57.15668510002433,,,,,,,,,57.143285500002094,57.15668510002433,58.13970870000776,58.13970870000776,58.15659760002745,60.555947700020624,verb,1,[2.415464699995937],[2.415473100001691],,,,,,,,,,,,,,,,,,,558536,20,,,,2024-11-25_07h06.42.516,labsoloproject,2024.2.1,60.41489323911668,2024-11-25 07h06.58.107172 +0530,
dish soap,noun,16,16,0,noun,1,[2.1329182000190485],[2.1329266999964602],0,16,16,9,60.572223400027724,,,,,,,,,60.5586930999998,60.572223400027724,61.57095410002512,61.57095410002512,61.587709900020855,63.70462700002827,noun,1,[2.1329182000190485],[2.1329266999964602],,,,,,,,,,,,,,,,,,,558536,20,,,,2024-11-25_07h06.42.516,labsoloproject,2024.2.1,60.41489323911668,2024-11-25 07h06.58.107172 +0530,
grilling,verb,17,17,0,verb,1,[2.2993956999853253],[2.299407299986342],0,17,17,17,63.72127580002416,,,,,,,,,63.70705810000072,63.72127580002416,64.71963120001601,64.71963120001601,64.73696840001503,67.01989180000965,verb,1,[2.2993956999853253],[2.299407299986342],,,,,,,,,,,,,,,,,,,558536,20,,,,2024-11-25_07h06.42.516,labsoloproject,2024.2.1,60.41489323911668,2024-11-25 07h06.58.107172 +0530,
garnishing,verb,18,18,0,verb,1,[1.8824688000022434],[1.8824756999965757],0,18,18,21,67.03542510000989,,,,,,,,,67.02253410001867,67.03542510000989,68.01864930000738,68.01864930000738,68.03533650000463,69.90186450001784,verb,1,[1.8824688000022434],[1.8824756999965757],,,,,,,,,,,,,,,,,,,558536,20,,,,2024-11-25_07h06.42.516,labsoloproject,2024.2.1,60.41489323911668,2024-11-25 07h06.58.107172 +0530,
garbage bin,noun,19,19,0,noun,1,[2.3989974000141956],[2.399008300009882],0,19,19,7,69.91802680000546,,,,,,,,,69.9046966000169,69.91802680000546,70.90097710001282,70.90097710001282,70.91729219999979,73.30068530002609,noun,1,[2.3989974000141956],[2.399008300009882],,,,,,,,,,,,,,,,,,,558536,20,,,,2024-11-25_07h06.42.516,labsoloproject,2024.2.1,60.41489323911668,2024-11-25 07h06.58.107172 +0530,
whisking,verb,20,20,0,verb,1,[1.7661621000152081],[1.7661707999941427],0,20,20,18,73.31607550001354,,,,,,,,,73.30457610002486,73.31607550001354,74.31559080001898,74.31559080001898,74.31559080001898,76.0825800000166,verb,1,[1.7661621000152081],[1.7661707999941427],,,,,,,,,,,,,,,,,,,558536,20,,,,2024-11-25_07h06.42.516,labsoloproject,2024.2.1,60.41489323911668,2024-11-25 07h06.58.107172 +0530,
peeling,verb,21,21,0,verb,1,[2.198214400006691],[2.198221400001785],0,21,21,19,76.0982878000068,,,,,,,,,76.08548340000561,76.0982878000068,77.0986948000209,77.0986948000209,77.0986948000209,79.2976980000094,verb,1,[2.198214400006691],[2.198221400001785],,,,,,,,,,,,,,,,,,,558536,20,,,,2024-11-25_07h06.42.516,labsoloproject,2024.2.1,60.41489323911668,2024-11-25 07h06.58.107172 +0530,
mashing,verb,22,22,0,verb,1,[2.315151400020113],[2.315158400015207],0,22,22,22,79.31326360002276,,,,,,,,,79.30130810002447,79.31326360002276,80.31407330001821,80.31407330001821,80.31407330001821,82.62986270000692,verb,1,[2.315151400020113],[2.315158400015207],,,,,,,,,,,,,,,,,,,558536,20,,,,2024-11-25_07h06.42.516,labsoloproject,2024.2.1,60.41489323911668,2024-11-25 07h06.58.107172 +0530,
chopping,verb,23,23,0,verb,1,[1.9823323999880813],[1.9823412999976426],0,23,23,12,82.6458611000271,,,,,,,,,82.63219980002032,82.6458611000271,83.64536040002713,83.64536040002713,83.64536040002713,85.62849930001539,verb,1,[1.9823323999880813],[1.9823412999976426],,,,,,,,,,,,,,,,,,,558536,20,,,,2024-11-25_07h06.42.516,labsoloproject,2024.2.1,60.41489323911668,2024-11-25 07h06.58.107172 +0530,
,,,,,,,,,,,,,,,,,,,,,,,,,,,,,,,,85.62867430000915,85.6448244000203,85.6448244000203,87.21129720000317,space,1.5563751999870874,None,,,,,,,,,,,,558536,20,,,,2024-11-25_07h06.42.516,labsoloproject,2024.2.1,60.41489323911668,2024-11-25 07h06.58.107172 +0530,
,,,,,,,,,,,,,,,,,,,,,,,,,,,,,,,,,,,,,,,87.21299200001522,87.22702890000073,87.22702890000073,177.2209192000155," chopping, knife, microwave oven, stove, jar, grinding, cooker, refrigerator",0,,,,,,558536,20,,,,2024-11-25_07h06.42.516,labsoloproject,2024.2.1,60.41489323911668,2024-11-25 07h06.58.107172 +0530,
,,,,,,,,,,,,,,,,,,,,,,,,,,,,,,,,,,,,,,,,,,,,,,,177.22098480002023,177.23828710001544,180.21988000001875,558536,20,,,,2024-11-25_07h06.42.516,labsoloproject,2024.2.1,60.41489323911668,2024-11-25 07h06.58.107172 +0530,
