word,category,thisN,thisTrialN,thisRepN,textbox.text,button_2.numClicks,button_2.timesOn,button_2.timesOff,trials.thisRepN,trials.thisTrialN,trials.thisN,trials.thisIndex,thisRow.t,notes,phase1.started,instruction1.started,key_resp_2.started,phase1.stopped,key_resp_2.keys,key_resp_2.rt,key_resp_2.duration,semantic_processing.started,fixation.started,textbox.started,button_2.started,fixation.stopped,semantic_processing.stopped,trials.textbox.text,trials.button_2.numClicks,trials.button_2.timesOn,trials.button_2.timesOff,phase2.started,instruction2.started,key_resp.started,phase2.stopped,key_resp.keys,key_resp.rt,key_resp.duration,recalltest.started,textbox_2.started,button.started,recalltest.stopped,textbox_2.text,button.numClicks,button.timesOn,button.timesOff,thankyou.started,thankyoutext.started,thankyoutext.stopped,thankyou.stopped,participant,age,school,sex,condition,date,expName,psychopyVersion,frameRate,expStart,
,,,,,,,,,,,,,,,0.008957600002759136,0.042004199989605695,0.042004199989605695,2.073207800000091,space,1.9861460999964038,None,,,,,,,,,,,,,,,,,,,,,,,,,,,,,,729472,19,,,,2024-11-24_15h08.07.481,labsoloproject,2024.2.1,60.09947665209863,2024-11-24 15h08.23.474205 +0530,
jar,noun,0,0,0, noun,1,[4.403845199994976],[4.4038693999900715],0,0,0,4,2.108002099994337,,,,,,,,,2.0879872999939835,2.108002099994337,3.1080016999912914,3.1080016999912914,3.1233939999947324,7.5129221999959555, noun,1,[4.403845199994976],[4.4038693999900715],,,,,,,,,,,,,,,,,,,,729472,19,,,,2024-11-24_15h08.07.481,labsoloproject,2024.2.1,60.09947665209863,2024-11-24 15h08.23.474205 +0530,
refrigerator,noun,1,1,0,noun,1,[3.5479964000114705],[3.5480036000080872],0,1,1,1,7.522926399993594,,,,,,,,,7.515639399993233,7.522926399993594,8.521959899997455,8.521959899997455,8.538689199995133,12.070615499993437,noun,1,[3.5479964000114705],[3.5480036000080872],,,,,,,,,,,,,,,,,,,,729472,19,,,,2024-11-24_15h08.07.481,labsoloproject,2024.2.1,60.09947665209863,2024-11-24 15h08.23.474205 +0530,
dish soap,noun,2,2,0,noun,1,[3.399288100001286],[3.3993005999946035],0,2,2,9,12.087102399993455,,,,,,,,,12.074064399988856,12.087102399993455,13.070194200001424,13.070194200001424,13.086802299992996,16.470205599995097,noun,1,[3.399288100001286],[3.3993005999946035],,,,,,,,,,,,,,,,,,,,729472,19,,,,2024-11-24_15h08.07.481,labsoloproject,2024.2.1,60.09947665209863,2024-11-24 15h08.23.474205 +0530,
whisking,verb,3,3,0,verb,1,[3.5000690999877406],[3.500080199999502],0,3,3,18,16.484516899989103,,,,,,,,,16.473799499988672,16.484516899989103,17.484724499998265,17.484724499998265,17.484724499998265,20.985392499991576,verb,1,[3.5000690999877406],[3.500080199999502],,,,,,,,,,,,,,,,,,,,729472,19,,,,2024-11-24_15h08.07.481,labsoloproject,2024.2.1,60.09947665209863,2024-11-24 15h08.23.474205 +0530,
grilling,verb,4,4,0,verb,1,[2.5157648000022164],[2.515772400001879],0,4,4,17,21.00091849999444,,,,,,,,,20.987801499999478,21.00091849999444,22.000771899998654,22.000771899998654,22.000771899998654,24.517079500001273,verb,1,[2.5157648000022164],[2.515772400001879],,,,,,,,,,,,,,,,,,,,729472,19,,,,2024-11-24_15h08.07.481,labsoloproject,2024.2.1,60.09947665209863,2024-11-24 15h08.23.474205 +0530,
garbage bin,noun,5,5,0,noun,1,[3.0655897999968147],[3.0655980999872554],0,5,5,7,24.533458599995356,,,,,,,,,24.520193599993945,24.533458599995356,25.5161897999933,25.5161897999933,25.532628399989335,28.58239679998951,noun,1,[3.0655897999968147],[3.0655980999872554],,,,,,,,,,,,,,,,,,,,729472,19,,,,2024-11-24_15h08.07.481,labsoloproject,2024.2.1,60.09947665209863,2024-11-24 15h08.23.474205 +0530,
blending,verb,6,6,0,verb,1,[4.4480392999976175],[4.448048299993388],0,6,6,13,28.597710299989558,,,,,,,,,28.585503499998595,28.597710299989558,29.59785799999372,29.59785799999372,29.59785799999372,34.04650369999581,verb,1,[4.4480392999976175],[4.448048299993388],,,,,,,,,,,,,,,,,,,,729472,19,,,,2024-11-24_15h08.07.481,labsoloproject,2024.2.1,60.09947665209863,2024-11-24 15h08.23.474205 +0530,
rolling pin,noun,7,7,0,noun,1,[3.3988667000085115],[3.3988755000027595],0,7,7,6,34.062014099996304,,,,,,,,,34.04922169999918,34.062014099996304,35.06188110000221,35.06188110000221,35.06188110000221,38.461421100000734,noun,1,[3.3988667000085115],[3.3988755000027595],,,,,,,,,,,,,,,,,,,,729472,19,,,,2024-11-24_15h08.07.481,labsoloproject,2024.2.1,60.09947665209863,2024-11-24 15h08.23.474205 +0530,
knife,noun,8,8,0,noun,1,[3.1156805000064196],[3.1156877000030363],0,8,8,5,38.476677899991046,,,,,,,,,38.464501700000255,38.476677899991046,39.476384299996425,39.476384299996425,39.476384299996425,42.59260949998861,noun,1,[3.1156805000064196],[3.1156877000030363],,,,,,,,,,,,,,,,,,,,729472,19,,,,2024-11-24_15h08.07.481,labsoloproject,2024.2.1,60.09947665209863,2024-11-24 15h08.23.474205 +0530,
cooker,noun,9,9,0,noun,1,[3.382424400013406],[3.382440700006555],0,9,9,3,42.608723899989855,,,,,,,,,42.59541319998971,42.608723899989855,43.60792799999763,43.60792799999763,43.60792799999763,46.991102899992256,noun,1,[3.382424400013406],[3.382440700006555],,,,,,,,,,,,,,,,,,,,729472,19,,,,2024-11-24_15h08.07.481,labsoloproject,2024.2.1,60.09947665209863,2024-11-24 15h08.23.474205 +0530,
stove,noun,10,10,0,noun,1,[2.7323723000008613],[2.732384099988849],0,10,10,0,47.00642819999484,,,,,,,,,46.99405819999811,47.00642819999484,48.00622489998932,48.00622489998932,48.00622489998932,50.739443099999335,noun,1,[2.7323723000008613],[2.732384099988849],,,,,,,,,,,,,,,,,,,,729472,19,,,,2024-11-24_15h08.07.481,labsoloproject,2024.2.1,60.09947665209863,2024-11-24 15h08.23.474205 +0530,
chopping,verb,11,11,0,verb,1,[3.7151460999884875],[3.7151573000010103],0,11,11,12,50.7547029999987,,,,,,,,,50.742746799995075,50.7547029999987,51.75511420000112,51.75511420000112,51.75511420000112,55.47095869999612,verb,1,[3.7151460999884875],[3.7151573000010103],,,,,,,,,,,,,,,,,,,,729472,19,,,,2024-11-24_15h08.07.481,labsoloproject,2024.2.1,60.09947665209863,2024-11-24 15h08.23.474205 +0530,
baking,verb,12,12,0,verb,1,[3.048952500001178],[3.0489650999952573],0,12,12,16,55.486012099994696,,,,,,,,,55.47451839999121,55.486012099994696,56.48596289999841,56.48596289999841,56.48596289999841,59.53559349999705,verb,1,[3.048952500001178],[3.0489650999952573],,,,,,,,,,,,,,,,,,,,729472,19,,,,2024-11-24_15h08.07.481,labsoloproject,2024.2.1,60.09947665209863,2024-11-24 15h08.23.474205 +0530,
mashing,verb,13,13,0,verb,1,[2.7331543000036618],[2.7331639000040013],0,13,13,22,59.55094659999304,,,,,,,,,59.53888159999042,59.55094659999304,60.55095920000167,60.55095920000167,60.55095920000167,63.28499999998894,verb,1,[2.7331543000036618],[2.7331639000040013],,,,,,,,,,,,,,,,,,,,729472,19,,,,2024-11-24_15h08.07.481,labsoloproject,2024.2.1,60.09947665209863,2024-11-24 15h08.23.474205 +0530,
boiling,verb,14,14,0,verb,1,[3.8486290000000736],[3.848635899994406],0,14,14,14,63.29929099998844,,,,,,,,,63.28808319999371,63.29929099998844,64.29909089999273,64.29909089999273,64.29909089999273,68.1484031,verb,1,[3.8486290000000736],[3.848635899994406],,,,,,,,,,,,,,,,,,,,729472,19,,,,2024-11-24_15h08.07.481,labsoloproject,2024.2.1,60.09947665209863,2024-11-24 15h08.23.474205 +0530,
microwave,noun,15,15,0,noun,1,[2.680439200004912],[2.680447799997637],0,15,15,2,68.16404879999754,,,,,,,,,68.15176149999024,68.16404879999754,69.1637258999981,69.1637258999981,69.1637258999981,71.84499289999076,noun,1,[2.680439200004912],[2.680447799997637],,,,,,,,,,,,,,,,,,,,729472,19,,,,2024-11-24_15h08.07.481,labsoloproject,2024.2.1,60.09947665209863,2024-11-24 15h08.23.474205 +0530,
bottle opener,noun,16,16,0,noun,1,[3.031469299996388],[3.0314790999982506],0,16,16,8,71.86084329998994,,,,,,,,,71.84781249999651,71.86084329998994,72.8610803999909,72.8610803999909,72.8610803999909,75.89332259999355,noun,1,[3.031469299996388],[3.0314790999982506],,,,,,,,,,,,,,,,,,,,729472,19,,,,2024-11-24_15h08.07.481,labsoloproject,2024.2.1,60.09947665209863,2024-11-24 15h08.23.474205 +0530,
grinding,verb,17,17,0,verb,1,[3.5146549999917625],[3.5146629999944707],0,17,17,23,75.90868169999158,,,,,,,,,75.89575270000205,75.90868169999158,76.9090647999983,76.9090647999983,76.9090647999983,80.42444009998871,verb,1,[3.5146549999917625],[3.5146629999944707],,,,,,,,,,,,,,,,,,,,729472,19,,,,2024-11-24_15h08.07.481,labsoloproject,2024.2.1,60.09947665209863,2024-11-24 15h08.23.474205 +0530,
frying,verb,18,18,0,verb,1,[3.64853820001008],[3.648545700008981],0,18,18,15,80.4409685999999,,,,,,,,,80.42682529999001,80.4409685999999,81.44012010000006,81.44012010000006,81.45667839999078,85.08936529999482,verb,1,[3.64853820001008],[3.648545700008981],,,,,,,,,,,,,,,,,,,,729472,19,,,,2024-11-24_15h08.07.481,labsoloproject,2024.2.1,60.09947665209863,2024-11-24 15h08.23.474205 +0530,
ice tray,noun,19,19,0,noun,1,[2.815578599998844],[2.8155853999924148],0,19,19,10,85.10561179999786,,,,,,,,,85.0920546999987,85.10561179999786,86.0878909000021,86.0878909000021,86.12198539999372,88.90422759999637,noun,1,[2.815578599998844],[2.8155853999924148],,,,,,,,,,,,,,,,,,,,729472,19,,,,2024-11-24_15h08.07.481,labsoloproject,2024.2.1,60.09947665209863,2024-11-24 15h08.23.474205 +0530,
peeling,verb,20,20,0,verb,1,[2.74883489999047],[2.748842099987087],0,20,20,19,88.9197439999989,,,,,,,,,88.90663699999277,88.9197439999989,89.90300269999716,89.90300269999716,89.91973349999171,92.65260789998865,verb,1,[2.74883489999047],[2.748842099987087],,,,,,,,,,,,,,,,,,,,729472,19,,,,2024-11-24_15h08.07.481,labsoloproject,2024.2.1,60.09947665209863,2024-11-24 15h08.23.474205 +0530,
garnishing,verb,21,21,0,verb,1,[3.349019400004181],[3.3490285000007134],0,21,21,21,92.66877150000073,,,,,,,,,92.65520470000047,92.66877150000073,93.66779269999824,93.66779269999824,93.66779269999824,97.01746239999193,verb,1,[3.349019400004181],[3.3490285000007134],,,,,,,,,,,,,,,,,,,,729472,19,,,,2024-11-24_15h08.07.481,labsoloproject,2024.2.1,60.09947665209863,2024-11-24 15h08.23.474205 +0530,
grating,verb,22,22,0,verb,1,[3.1320896000106586],[3.1320982000033837],0,22,22,20,97.03289639999275,,,,,,,,,97.0198587999912,97.03289639999275,98.03277510000044,98.03277510000044,98.03277510000044,101.16578099998878,verb,1,[3.1320896000106586],[3.1320982000033837],,,,,,,,,,,,,,,,,,,,729472,19,,,,2024-11-24_15h08.07.481,labsoloproject,2024.2.1,60.09947665209863,2024-11-24 15h08.23.474205 +0530,
fruit basket,noun,23,23,0,noun,1,[6.414175800004159],[6.414185200002976],0,23,23,11,101.18201609999232,,,,,,,,,101.16901019999932,101.18201609999232,102.18075999998837,102.18075999998837,102.19738459998916,108.59576009999728,noun,1,[6.414175800004159],[6.414185200002976],,,,,,,,,,,,,,,,,,,,729472,19,,,,2024-11-24_15h08.07.481,labsoloproject,2024.2.1,60.09947665209863,2024-11-24 15h08.23.474205 +0530,
,,,,,,,,,,,,,,,,,,,,,,,,,,,,,,,,108.59597719999147,108.61142219998874,108.61142219998874,127.52083919999131,space,18.902550100014196,None,,,,,,,,,,,,,729472,19,,,,2024-11-24_15h08.07.481,labsoloproject,2024.2.1,60.09947665209863,2024-11-24 15h08.23.474205 +0530,
,,,,,,,,,,,,,,,,,,,,,,,,,,,,,,,,,,,,,,,127.52248379999946,127.53649189999851,127.53649189999851,215.56620770000154," grating, cooker, ice tray, refrigerator, microwave, garnishing, frying, baking, knife, boiling, stove",1,[88.02887779999583],[88.02888659999007],,,,,729472,19,,,,2024-11-24_15h08.07.481,labsoloproject,2024.2.1,60.09947665209863,2024-11-24 15h08.23.474205 +0530,
,,,,,,,,,,,,,,,,,,,,,,,,,,,,,,,,,,,,,,,,,,,,,,,215.56634340000164,215.58184579999943,218.5817490999907,218.5654316,729472,19,,,,2024-11-24_15h08.07.481,labsoloproject,2024.2.1,60.09947665209863,2024-11-24 15h08.23.474205 +0530,
